Folder: spex_quant/N132962/Quantification/20 keV/Chucks Circular

Note: README.md
# spex_quant
Spectral data for evaluating `spex`.  It contains both standard spectra and sample spectra.

 * N132962 represents the TESCAN MIRA4 with 4 silicon nitride window silicon drift detectors in 217 D113 at NIST Gaitherburg.
  * Reference set: "N132962 20 keV" built using 'n132962_20keV.bat' for 20 keV analyses

File: CC Chuck's Circular Apatite[0][4].msa
#FORMAT      : EMSA/MAS Spectral Data File
#VERSION     : 1.0
#TITLE       : CC Chuck's Circular Apatite[0][all]
#DATE        : 09-SEP-2025
#TIME        : 11:48
#OWNER       : Unknown
#NPOINTS     : 4096
#NCOLUMNS    : 1
#XUNITS      : eV
#YUNITS      : counts
#DATATYPE    : Y
#XPERCHAN    : 9.99778
#OFFSET      : 1.69135
#BEAMKV      : 20
#SIGNALTYPE  : EDS
#ELEVANGLE   : 35
#AZIMANGLE   : 0
#LIVETIME    : 240.128
#REALTIME    : 259.37
#PROBECUR    : 1.24242
#TAUWIND     : 0
#TDEADLYR    : 0
#TACTLYR     : 0.045
#TALWIND     : 0.025
#CHOFFSET    : 0.0
#XLABEL      : Energy (eV)
#YLABEL      : Counts
#XPOSITION   : 11.37076
#YPOSITION   : -0.1421
#ZPOSITION   : 37.19848
#EDSDET      : SD
##SPECIMEN   : CC Chuck's Circular Apatite[0][all]
##DET_HASH   : 12273538-fd48-a23f-0a19-f1e6fa85caef
##CALIB_HASH : 6abaa72c-aa41-8738-0be9-f592914732f3
##WORKING    : 15.02 mm
##DET_NAME   : EDAX All
##DET_MODE   : MediumLE
#SPECTRUM    :
27,
305,
18814,
4088,
25585,
7717,
3575,
4140,
4498,
5891,
5625,
5950,
6933,
7488,
76262,
22681,
4893,
4335,
4293,
6259,
3978,
3530,
3594,
3505,
3374,
4599,
119517,
39393,
7657,
19919,
2281,
2119,
2194,
2521,
2227,
2297,
2067,
2081,
2073,
1771,
1921,
2032,
1654,
1665,
1572,
1546,
1532,
1359,
1364,
1273,
1179,
1191,
1163,
1336,
1174,
1133,
971,
1025,
931,
945,
979,
859,
855,
780,
780,
746,
743,
702,
669,
679,
662,
654,
606,
617,
574,
649,
552,
540,
476,
463,
439,
464,
416,
403,
403,
394,
367,
369,
361,
286,
264,
286,
268,
251,
250,
253,
225,
201,
198,
198,
188,
163,
148,
140,
171,
130,
129,
131,
111,
108,
118,
99,
99,
93,
78,
72,
70,
68,
67,
62,
55,
67,
48,
42,
37,
19,
39,
28,
22,
20,
34,
26,
22,
15,
18,
22,
5,
13,
11,
7,
9,
5,
2,
0,
1,
1,
1,
1,
0,
1,
1,
1,
0,
0,
0,
1,
0,
0,
0,
0,
0,
0,
0,
0,
0,
0,
0,
0,
0,
0,
0,
0,
0,
0,
0,
0,
0,
0,
0,
1,
0,
0,
0,
0,
0,
0,
0,
0,
0,
0,
0,
0,
0,
0,
0,
0,
0,
0,
0,
0,
0,
0,
0,
0,
0,
0,
0,
0,
0,
0,
0,
0,
0,
0,
0,
0,
0,
0,
0,
0,
0,
0,
0,
0,
0,
0,
0,
0,
0,
0,
0,
0,
0,
0,
0,
0,
0,
0,
0,
0,
0,
0,
0,
0,
0,
0,
0,
0,
0,
0,
0,
0,
0,
0,
0,
0,
0,
0,
0,
0,
0,
0,
0,
0,
0,
0,
0,
0,
0,
0,
0,
0,
0,
0,
0,
0,
0,
0,
0,
0,
0,
0,
0,
0,
0,
0,
0,
0,
0,
0,
0,
0,
0,
0,
#ENDOFDATA   :

File: CC Chuck's Circular Apatite[3][4].msa
#FORMAT      : EMSA/MAS Spectral Data File
#VERSION     : 1.0
#TITLE       : CC Chuck's Circular Apatite[3][all]
#DATE        : 09-SEP-2025
#TIME        : 11:52
#OWNER       : Unknown
#NPOINTS     : 4096
#NCOLUMNS    : 1
#XUNITS      : eV
#YUNITS      : counts
#DATATYPE    : Y
#XPERCHAN    : 9.99778
#OFFSET      : 1.69135
#BEAMKV      : 20
#SIGNALTYPE  : EDS
#ELEVANGLE   : 35
#AZIMANGLE   : 0
#LIVETIME    : 240.135
#REALTIME    : 259.368
#PROBECUR    : 1.24242
#TAUWIND     : 0
#TDEADLYR    : 0
#TACTLYR     : 0.045
#TALWIND     : 0.025
#CHOFFSET    : 0.0
#XLABEL      : Energy (eV)
#YLABEL      : Counts
#XPOSITION   : 11.33385
#YPOSITION   : -0.13346
#ZPOSITION   : 37.19848
#EDSDET      : SD
##SPECIMEN   : CC Chuck's Circular Apatite[3][all]
##DET_HASH   : 12273538-fd48-a23f-0a19-f1e6fa85caef
##CALIB_HASH : 6abaa72c-aa41-8738-0be9-f592914732f3
##WORKING    : 15.02 mm
##DET_NAME   : EDAX All
##DET_MODE   : MediumLE
#SPECTRUM    :
25,
286,
19095,
4198,
25829,
7404,
3699,
4219,
4607,
5754,
5626,
5901,
6964,
7608,
76536,
22536,
4853,
4240,
4251,
6354,
3924,
3742,
3482,
3529,
3396,
4569,
119150,
40069,
7747,
19519,
2311,
2073,
2098,
2450,
2261,
2254,
2216,
2022,
2087,
1730,
1894,
1962,
1563,
1612,
1473,
1554,
1571,
1385,
1369,
1279,
1248,
1221,
1183,
1460,
1164,
1074,
1044,
1019,
941,
929,
872,
869,
859,
805,
767,
774,
703,
735,
689,
694,
644,
626,
635,
602,
562,
614,
519,
515,
444,
452,
481,
427,
396,
410,
447,
358,
318,
331,
318,
313,
277,
314,
309,
241,
235,
243,
228,
210,
196,
192,
169,
203,
165,
145,
168,
151,
126,
125,
137,
112,
114,
107,
90,
82,
78,
83,
78,
63,
59,
53,
61,
57,
52,
46,
35,
37,
34,
34,
17,
38,
21,
20,
18,
26,
13,
17,
7,
10,
9,
4,
2,
3,
1,
1,
0,
0,
0,
1,
0,
0,
0,
0,
0,
1,
0,
1,
0,
0,
0,
0,
0,
0,
1,
0,
0,
0,
0,
0,
0,
0,
0,
0,
0,
0,
0,
0,
0,
0,
0,
0,
0,
0,
0,
0,
0,
0,
0,
0,
0,
0,
0,
0,
0,
0,
0,
0,
0,
0,
0,
0,
0,
0,
0,
0,
0,
0,
0,
0,
0,
0,
0,
0,
0,
0,
0,
0,
0,
0,
0,
0,
0,
0,
0,
0,
0,
0,
0,
0,
0,
0,
0,
0,
0,
0,
0,
0,
0,
0,
0,
0,
0,
0,
0,
0,
0,
0,
0,
0,
0,
0,
0,
0,
0,
0,
0,
0,
0,
0,
0,
0,
0,
0,
0,
0,
0,
0,
0,
0,
0,
0,
0,
0,
0,
0,
0,
0,
0,
0,
0,
0,
0,
0,
0,
0,
0,
0,
0,
0,
0,
0,
0,
0,
0,
0,
#ENDOFDATA   :

File: CC Chuck's Circular Apatite[4][4].msa
#FORMAT      : EMSA/MAS Spectral Data File
#VERSION     : 1.0
#TITLE       : CC Chuck's Circular Apatite[4][all]
#DATE        : 09-SEP-2025
#TIME        : 11:53
#OWNER       : Unknown
#NPOINTS     : 4096
#NCOLUMNS    : 1
#XUNITS      : eV
#YUNITS      : counts
#DATATYPE    : Y
#XPERCHAN    : 9.99778
#OFFSET      : 1.69135
#BEAMKV      : 20
#SIGNALTYPE  : EDS
#ELEVANGLE   : 35
#AZIMANGLE   : 0
#LIVETIME    : 240.147
#REALTIME    : 259.363
#PROBECUR    : 1.24242
#TAUWIND     : 0
#TDEADLYR    : 0
#TACTLYR     : 0.045
#TALWIND     : 0.025
#CHOFFSET    : 0.0
#XLABEL      : Energy (eV)
#YLABEL      : Counts
#XPOSITION   : 11.29931
#YPOSITION   : -0.14478
#ZPOSITION   : 37.19848
#EDSDET      : SD
##SPECIMEN   : CC Chuck's Circular Apatite[4][all]
##DET_HASH   : 12273538-fd48-a23f-0a19-f1e6fa85caef
##CALIB_HASH : 6abaa72c-aa41-8738-0be9-f592914732f3
##WORKING    : 15.02 mm
##DET_NAME   : EDAX All
##DET_MODE   : MediumLE
#SPECTRUM    :
26,
302,
19048,
4054,
25376,
7631,
3617,
4114,
4557,
5657,
5556,
5995,
6873,
7564,
76796,
22487,
4949,
4336,
4240,
6409,
3953,
3773,
3517,
3493,
3273,
4458,
118730,
39792,
7904,
19604,
2325,
2023,
2140,
2414,
2116,
2222,
2186,
2088,
2059,
1920,
1949,
2038,
1673,
1609,
1467,
1469,
1513,
1416,
1357,
1279,
1266,
1160,
1218,
1410,
1188,
1046,
1021,
990,
978,
974,
948,
831,
837,
829,
795,
773,
808,
675,
700,
671,
664,
610,
623,
636,
566,
616,
529,
532,
523,
473,
478,
423,
417,
410,
348,
335,
355,
331,
310,
300,
306,
287,
281,
280,
253,
236,
200,
183,
196,
214,
179,
190,
183,
172,
148,
142,
134,
131,
122,
107,
97,
108,
107,
94,
100,
86,
76,
61,
71,
54,
53,
45,
41,
52,
38,
36,
36,
27,
29,
24,
21,
18,
16,
16,
22,
12,
14,
5,
7,
4,
5,
2,
0,
0,
0,
1,
0,
0,
0,
1,
0,
2,
0,
0,
0,
1,
0,
0,
0,
0,
0,
0,
1,
0,
0,
1,
0,
0,
1,
0,
0,
0,
0,
0,
0,
0,
0,
0,
0,
1,
0,
0,
0,
0,
0,
0,
0,
1,
0,
0,
0,
0,
0,
0,
0,
0,
0,
0,
0,
0,
0,
0,
0,
0,
1,
0,
0,
0,
0,
0,
0,
0,
0,
0,
0,
0,
0,
0,
0,
0,
0,
0,
0,
0,
0,
0,
0,
0,
0,
0,
0,
0,
0,
0,
0,
0,
0,
0,
0,
0,
0,
0,
0,
0,
0,
0,
0,
0,
0,
0,
0,
0,
0,
0,
0,
0,
0,
0,
0,
0,
0,
0,
0,
0,
0,
0,
0,
0,
0,
0,
0,
0,
0,
0,
0,
0,
0,
0,
0,
0,
0,
0,
0,
0,
0,
0,
0,
0,
0,
0,
0,
0,
0,
0,
#ENDOFDATA   :

File: CC Chuck's Circular Apatite[5][4].msa
#FORMAT      : EMSA/MAS Spectral Data File
#VERSION     : 1.0
#TITLE       : CC Chuck's Circular Apatite[5][all]
#DATE        : 09-SEP-2025
#TIME        : 11:54
#OWNER       : Unknown
#NPOINTS     : 4096
#NCOLUMNS    : 1
#XUNITS      : eV
#YUNITS      : counts
#DATATYPE    : Y
#XPERCHAN    : 9.99778
#OFFSET      : 1.69135
#BEAMKV      : 20
#SIGNALTYPE  : EDS
#ELEVANGLE   : 35
#AZIMANGLE   : 0
#LIVETIME    : 240.148
#REALTIME    : 259.368
#PROBECUR    : 1.24242
#TAUWIND     : 0
#TDEADLYR    : 0
#TACTLYR     : 0.045
#TALWIND     : 0.025
#CHOFFSET    : 0.0
#XLABEL      : Energy (eV)
#YLABEL      : Counts
#XPOSITION   : 11.38862
#YPOSITION   : -0.20034
#ZPOSITION   : 37.19848
#EDSDET      : SD
##SPECIMEN   : CC Chuck's Circular Apatite[5][all]
##DET_HASH   : 12273538-fd48-a23f-0a19-f1e6fa85caef
##CALIB_HASH : 6abaa72c-aa41-8738-0be9-f592914732f3
##WORKING    : 15.02 mm
##DET_NAME   : EDAX All
##DET_MODE   : MediumLE
#SPECTRUM    :
18,
282,
18628,
4095,
25575,
7713,
3680,
4059,
4613,
5848,
5767,
5888,
6979,
7333,
76757,
22726,
5020,
4209,
4277,
6355,
3994,
3492,
3566,
3453,
3346,
4476,
118405,
39817,
7773,
19750,
2343,
2063,
2215,
2464,
2165,
2248,
2142,
2016,
2035,
1822,
1850,
2022,
1640,
1695,
1510,
1539,
1586,
1437,
1350,
1206,
1212,
1261,
1217,
1410,
1168,
1102,
1073,
951,
972,
1010,
924,
892,
902,
809,
798,
739,
762,
724,
645,
653,
649,
610,
615,
599,
609,
624,
543,
513,
499,
458,
455,
447,
420,
435,
377,
396,
344,
353,
326,
336,
327,
279,
258,
283,
258,
257,
204,
229,
210,
200,
175,
185,
165,
175,
139,
157,
129,
125,
132,
116,
107,
109,
101,
81,
76,
80,
76,
68,
69,
62,
56,
46,
62,
38,
39,
41,
35,
25,
21,
22,
22,
23,
21,
14,
13,
8,
15,
14,
3,
2,
3,
2,
0,
1,
1,
0,
2,
0,
0,
0,
0,
0,
1,
1,
0,
0,
0,
0,
0,
0,
0,
0,
1,
0,
0,
1,
0,
0,
0,
0,
0,
0,
0,
0,
0,
0,
0,
0,
0,
0,
0,
0,
0,
0,
0,
0,
0,
1,
0,
0,
0,
0,
0,
0,
0,
0,
0,
0,
0,
0,
0,
0,
0,
0,
0,
0,
0,
0,
0,
0,
0,
0,
0,
0,
0,
0,
0,
0,
0,
0,
0,
0,
0,
0,
0,
0,
0,
0,
0,
0,
0,
0,
0,
0,
0,
0,
0,
0,
0,
0,
0,
0,
0,
0,
0,
0,
0,
0,
0,
0,
0,
0,
0,
0,
0,
0,
0,
0,
0,
0,
0,
0,
0,
0,
0,
0,
0,
0,
0,
0,
0,
0,
0,
0,
0,
0,
0,
0,
0,
0,
0,
0,
0,
0,
0,
0,
0,
0,
0,
0,
0,
0,
0,
0,
#ENDOFDATA   :

File: CC Marjabrite Olivine[0][4].msa
#FORMAT      : EMSA/MAS Spectral Data File
#VERSION     : 1.0
#TITLE       : CC Marjabrite Olivine[0][all]
#DATE        : 09-SEP-2025
#TIME        : 11:55
#OWNER       : Unknown
#NPOINTS     : 4096
#NCOLUMNS    : 1
#XUNITS      : eV
#YUNITS      : counts
#DATATYPE    : Y
#XPERCHAN    : 9.99778
#OFFSET      : 1.69135
#BEAMKV      : 20
#SIGNALTYPE  : EDS
#ELEVANGLE   : 35
#AZIMANGLE   : 0
#LIVETIME    : 240.119
#REALTIME    : 259.689
#PROBECUR    : 1.24242
#TAUWIND     : 0
#TDEADLYR    : 0
#TACTLYR     : 0.045
#TALWIND     : 0.025
#CHOFFSET    : 0.0
#XLABEL      : Energy (eV)
#YLABEL      : Counts
#XPOSITION   : 10.28713
#YPOSITION   : 6.33532
#ZPOSITION   : 37.19848
#EDSDET      : SD
##SPECIMEN   : CC Marjabrite Olivine[0][all]
##DET_HASH   : 12273538-fd48-a23f-0a19-f1e6fa85caef
##CALIB_HASH : 6abaa72c-aa41-8738-0be9-f592914732f3
##WORKING    : 15.02 mm
##DET_NAME   : EDAX All
##DET_MODE   : MediumLE
#SPECTRUM    :
20,
233,
5405,
9569,
85316,
11110,
3127,
4001,
6544,
262507,
3341,
4044,
47792,
23109,
2740,
2762,
3438,
2935,
3307,
2891,
2780,
3028,
2789,
2510,
2545,
2638,
2469,
2265,
2222,
2170,
1990,
1941,
2047,
1964,
1828,
1769,
1727,
1629,
1554,
1547,
1439,
1482,
1923,
1317,
1332,
5964,
16037,
1420,
1151,
1131,
2692,
1846,
924,
914,
891,
876,
855,
805,
787,
764,
709,
724,
685,
680,
616,
607,
596,
545,
508,
541,
519,
511,
458,
434,
451,
424,
409,
376,
398,
383,
378,
357,
337,
319,
321,
267,
282,
268,
227,
217,
228,
222,
217,
205,
206,
163,
171,
177,
154,
161,
143,
126,
123,
132,
121,
111,
88,
109,
107,
65,
88,
82,
59,
70,
69,
62,
68,
53,
53,
44,
58,
33,
41,
26,
35,
26,
17,
19,
17,
14,
16,
13,
14,
9,
12,
3,
9,
2,
8,
3,
1,
6,
1,
0,
0,
0,
0,
0,
1,
0,
0,
0,
0,
0,
0,
0,
0,
0,
0,
1,
0,
0,
1,
0,
0,
0,
0,
0,
1,
0,
0,
0,
0,
0,
0,
0,
0,
0,
0,
0,
0,
0,
0,
0,
0,
0,
0,
0,
0,
0,
0,
0,
0,
0,
0,
0,
0,
0,
1,
0,
0,
0,
0,
0,
0,
0,
0,
0,
0,
0,
0,
0,
0,
0,
0,
0,
0,
0,
0,
0,
0,
0,
0,
0,
0,
0,
0,
0,
0,
0,
0,
0,
0,
0,
0,
0,
0,
0,
0,
0,
0,
0,
0,
0,
0,
0,
0,
0,
0,
0,
0,
0,
0,
0,
0,
0,
0,
0,
0,
0,
0,
0,
0,
0,
0,
0,
0,
0,
0,
0,
0,
0,
0,
0,
0,
0,
0,
0,
0,
0,
0,
0,
0,
0,
0,
0,
0,
0,
0,
0,
0,
0,
0,
0,
#ENDOFDATA   :

File: CC Marjabrite Olivine[4][4].msa
#FORMAT      : EMSA/MAS Spectral Data File
#VERSION     : 1.0
#TITLE       : CC Marjabrite Olivine[4][all]
#DATE        : 09-SEP-2025
#TIME        : 12:00
#OWNER       : Unknown
#NPOINTS     : 4096
#NCOLUMNS    : 1
#XUNITS      : eV
#YUNITS      : counts
#DATATYPE    : Y
#XPERCHAN    : 9.99778
#OFFSET      : 1.69135
#BEAMKV      : 20
#SIGNALTYPE  : EDS
#ELEVANGLE   : 35
#AZIMANGLE   : 0
#LIVETIME    : 240.163
#REALTIME    : 259.75
#PROBECUR    : 1.24242
#TAUWIND     : 0
#TDEADLYR    : 0
#TACTLYR     : 0.045
#TALWIND     : 0.025
#CHOFFSET    : 0.0
#XLABEL      : Energy (eV)
#YLABEL      : Counts
#XPOSITION   : 10.31712
#YPOSITION   : 6.26781
#ZPOSITION   : 37.19848
#EDSDET      : SD
##SPECIMEN   : CC Marjabrite Olivine[4][all]
##DET_HASH   : 12273538-fd48-a23f-0a19-f1e6fa85caef
##CALIB_HASH : 6abaa72c-aa41-8738-0be9-f592914732f3
##WORKING    : 15.02 mm
##DET_NAME   : EDAX All
##DET_MODE   : MediumLE
#SPECTRUM    :
28,
222,
5331,
9545,
86150,
11021,
3179,
4132,
6715,
261531,
3466,
3865,
47754,
23774,
2711,
2875,
3512,
2897,
3331,
2896,
2862,
3074,
2736,
2607,
2468,
2561,
2312,
2292,
2181,
2150,
2049,
1931,
2063,
1881,
1765,
1726,
1708,
1623,
1593,
1556,
1453,
1359,
1953,
1368,
1287,
5835,
16007,
1370,
1116,
1155,
2703,
1942,
949,
877,
869,
874,
836,
815,
811,
777,
767,
683,
636,
666,
620,
589,
580,
561,
524,
526,
528,
466,
492,
466,
460,
432,
389,
376,
377,
405,
371,
375,
330,
301,
300,
286,
279,
241,
269,
214,
234,
204,
234,
229,
192,
188,
164,
191,
164,
139,
145,
138,
127,
135,
95,
99,
102,
69,
87,
74,
83,
83,
56,
69,
62,
50,
55,
49,
49,
43,
44,
41,
26,
35,
24,
31,
24,
23,
18,
20,
21,
13,
12,
7,
4,
8,
5,
4,
12,
6,
6,
2,
3,
1,
1,
0,
0,
0,
0,
0,
0,
1,
0,
0,
0,
0,
0,
0,
0,
0,
0,
0,
0,
0,
0,
0,
0,
0,
0,
0,
0,
0,
0,
0,
0,
0,
0,
0,
0,
0,
0,
0,
0,
0,
0,
0,
0,
0,
0,
0,
0,
0,
0,
0,
0,
0,
0,
0,
0,
0,
0,
0,
0,
0,
0,
0,
0,
0,
0,
0,
0,
0,
0,
0,
0,
0,
0,
0,
0,
0,
0,
0,
0,
0,
0,
0,
0,
0,
0,
0,
0,
0,
0,
0,
0,
0,
0,
0,
0,
0,
0,
0,
0,
0,
0,
0,
0,
0,
0,
0,
0,
0,
0,
0,
0,
0,
0,
0,
0,
0,
0,
0,
0,
0,
0,
0,
0,
0,
0,
0,
0,
0,
0,
0,
0,
0,
0,
0,
0,
0,
0,
0,
0,
0,
0,
0,
0,
0,
0,
0,
0,
0,
0,
0,
#ENDOFDATA   :

File: CC Shallowater Enstatite[5][4].msa
#FORMAT      : EMSA/MAS Spectral Data File
#VERSION     : 1.0
#TITLE       : CC Shallow Water Enstatite[5][all]
#DATE        : 09-SEP-2025
#TIME        : 12:08
#OWNER       : Unknown
#NPOINTS     : 4096
#NCOLUMNS    : 1
#XUNITS      : eV
#YUNITS      : counts
#DATATYPE    : Y
#XPERCHAN    : 9.99778
#OFFSET      : 1.69135
#BEAMKV      : 20
#SIGNALTYPE  : EDS
#ELEVANGLE   : 35
#AZIMANGLE   : 0
#LIVETIME    : 239.929
#REALTIME    : 260.193
#PROBECUR    : 1.24242
#TAUWIND     : 0
#TDEADLYR    : 0
#TACTLYR     : 0.045
#TALWIND     : 0.025
#CHOFFSET    : 0.0
#XLABEL      : Energy (eV)
#YLABEL      : Counts
#XPOSITION   : 10.58865
#YPOSITION   : 8.34719
#ZPOSITION   : 37.19848
#EDSDET      : SD
##SPECIMEN   : CC Shallow Water Enstatite[5][all]
##DET_HASH   : 12273538-fd48-a23f-0a19-f1e6fa85caef
##CALIB_HASH : 6abaa72c-aa41-8738-0be9-f592914732f3
##WORKING    : 15.02 mm
##DET_NAME   : EDAX All
##DET_MODE   : MediumLE
#SPECTRUM    :
32,
213,
5079,
8946,
85101,
2403,
3204,
4319,
6792,
247260,
3781,
4634,
75409,
35415,
2549,
2507,
3410,
2600,
3045,
2632,
2568,
3055,
2594,
2491,
2332,
2601,
2381,
2071,
1933,
2005,
1859,
1753,
1884,
1682,
1590,
1515,
1522,
1359,
1423,
1354,
1243,
1203,
1226,
1125,
1135,
1128,
1088,
1024,
1032,
882,
932,
854,
874,
835,
801,
692,
718,
670,
689,
722,
650,
592,
587,
622,
515,
504,
502,
489,
489,
494,
479,
419,
396,
410,
400,
351,
366,
370,
313,
315,
300,
294,
288,
280,
296,
227,
234,
252,
192,
226,
195,
174,
183,
162,
143,
152,
166,
142,
114,
121,
128,
132,
92,
109,
118,
93,
108,
77,
80,
66,
76,
64,
74,
54,
50,
49,
53,
47,
40,
34,
43,
38,
26,
29,
44,
26,
22,
19,
20,
19,
14,
12,
14,
11,
10,
5,
9,
6,
5,
2,
6,
2,
1,
1,
0,
0,
1,
0,
0,
0,
0,
0,
0,
0,
0,
0,
0,
0,
0,
0,
0,
0,
0,
0,
0,
0,
0,
0,
0,
0,
0,
0,
0,
0,
0,
0,
0,
0,
0,
0,
0,
1,
0,
0,
0,
0,
0,
0,
0,
0,
0,
0,
0,
0,
0,
0,
0,
0,
0,
0,
0,
0,
0,
0,
0,
0,
0,
0,
0,
0,
0,
0,
0,
0,
0,
0,
0,
0,
0,
0,
0,
0,
0,
0,
0,
0,
0,
0,
0,
0,
0,
0,
0,
0,
0,
0,
0,
0,
0,
0,
0,
0,
0,
0,
0,
0,
0,
0,
0,
0,
0,
0,
0,
0,
0,
0,
0,
0,
0,
0,
0,
0,
0,
0,
0,
0,
0,
0,
0,
0,
0,
0,
0,
0,
0,
0,
0,
0,
0,
0,
0,
0,
0,
0,
0,
0,
0,
0,
0,
0,
0,
0,
0,
0,
#ENDOFDATA   :