Folder: spex_quant/N132962/Quantification/20 keV/Glass Mount IIIB (part 7)

File: GM IIIB K961[4][4].msa
#FORMAT      : EMSA/MAS Spectral Data File
#VERSION     : 1.0
#TITLE       : GM IIIB K961[4][all]
#DATE        : 11-SEP-2025
#TIME        : 09:58
#OWNER       : Unknown
#NPOINTS     : 4096
#NCOLUMNS    : 1
#XUNITS      : eV
#YUNITS      : counts
#DATATYPE    : Y
#XPERCHAN    : 9.99778
#OFFSET      : 1.69135
#BEAMKV      : 20
#SIGNALTYPE  : EDS
#ELEVANGLE   : 35
#AZIMANGLE   : 0
#LIVETIME    : 240.1835
#REALTIME    : 259.234
#PROBECUR    : 1.22337
#TAUWIND     : 0
#TDEADLYR    : 0
#TACTLYR     : 0.045
#TALWIND     : 0.025
#CHOFFSET    : 0.0
#XLABEL      : Energy (eV)
#YLABEL      : Counts
#XPOSITION   : 11.35184
#YPOSITION   : 12.05042
#ZPOSITION   : 34.00161
#EDSDET      : SD
##SPECIMEN   : GM IIIB K961[4][all]
##D2STDCMP   : K961,(O:46.98),(Na:2.97),(Mg:3.02),(Al:5.82),(Si:29.92),(P:0.22),(K:2.49),(Ca:3.57),(Ti:1.2),(Mn:0.32),(Fe:3.5)
##DET_HASH   : 12273538-fd48-a23f-0a19-f1e6fa85caef
##CALIB_HASH : 6abaa72c-aa41-8738-0be9-f592914732f3
##WORKING    : 15.0 mm
##DET_NAME   : EDAX All
##DET_MODE   : MediumLE
#SPECTRUM    :
28,
191,
5147,
8051,
65368,
5716,
3061,
7445,
5085,
29747,
8474,
24775,
87310,
40578,
3588,
3021,
3596,
2852,
2853,
2822,
2993,
2808,
2676,
4563,
11043,
3329,
13360,
5366,
2573,
3628,
2062,
2052,
5829,
2187,
1731,
2194,
1752,
1538,
1498,
1502,
1382,
1415,
2098,
1371,
1258,
2961,
7017,
1200,
1023,
1044,
1717,
1302,
927,
921,
905,
838,
848,
759,
775,
784,
659,
689,
681,
635,
593,
606,
544,
574,
546,
568,
522,
484,
444,
441,
443,
387,
409,
399,
369,
398,
358,
369,
310,
323,
288,
302,
268,
256,
238,
227,
243,
204,
202,
192,
176,
196,
172,
182,
168,
154,
152,
127,
124,
128,
112,
98,
90,
86,
105,
101,
73,
61,
64,
76,
69,
53,
49,
49,
37,
36,
39,
47,
37,
35,
23,
35,
15,
20,
14,
22,
18,
20,
14,
11,
15,
8,
8,
6,
8,
2,
3,
0,
2,
2,
0,
0,
0,
0,
1,
0,
0,
1,
0,
0,
0,
0,
0,
0,
0,
0,
0,
0,
0,
0,
0,
0,
0,
0,
0,
0,
0,
0,
0,
0,
0,
0,
0,
0,
0,
0,
0,
1,
0,
0,
0,
1,
0,
0,
0,
0,
0,
0,
0,
0,
0,
0,
0,
0,
0,
0,
0,
0,
0,
0,
0,
0,
0,
0,
0,
0,
0,
0,
0,
0,
0,
0,
0,
0,
0,
0,
0,
0,
0,
0,
0,
0,
0,
0,
0,
0,
0,
0,
0,
0,
0,
0,
0,
0,
0,
0,
0,
0,
0,
0,
0,
0,
0,
0,
0,
0,
0,
0,
0,
0,
0,
0,
0,
0,
0,
0,
0,
0,
0,
0,
0,
0,
0,
0,
0,
0,
0,
0,
0,
0,
0,
0,
0,
0,
0,
0,
0,
0,
0,
0,
0,
0,
0,
0,
0,
0,
0,
0,
0,
0,
#ENDOFDATA   :

File: GM IIIB K961[6][4].msa
#FORMAT      : EMSA/MAS Spectral Data File
#VERSION     : 1.0
#TITLE       : GM IIIB K961[6][all]
#DATE        : 11-SEP-2025
#TIME        : 10:01
#OWNER       : Unknown
#NPOINTS     : 4096
#NCOLUMNS    : 1
#XUNITS      : eV
#YUNITS      : counts
#DATATYPE    : Y
#XPERCHAN    : 9.99778
#OFFSET      : 1.69135
#BEAMKV      : 20
#SIGNALTYPE  : EDS
#ELEVANGLE   : 35
#AZIMANGLE   : 0
#LIVETIME    : 240.149
#REALTIME    : 259.181
#PROBECUR    : 1.22337
#TAUWIND     : 0
#TDEADLYR    : 0
#TACTLYR     : 0.045
#TALWIND     : 0.025
#CHOFFSET    : 0.0
#XLABEL      : Energy (eV)
#YLABEL      : Counts
#XPOSITION   : 11.33135
#YPOSITION   : 12.04942
#ZPOSITION   : 34.00161
#EDSDET      : SD
##SPECIMEN   : GM IIIB K961[6][all]
##D2STDCMP   : K961,(O:46.98),(Na:2.97),(Mg:3.02),(Al:5.82),(Si:29.92),(P:0.22),(K:2.49),(Ca:3.57),(Ti:1.2),(Mn:0.32),(Fe:3.5)
##DET_HASH   : 12273538-fd48-a23f-0a19-f1e6fa85caef
##CALIB_HASH : 6abaa72c-aa41-8738-0be9-f592914732f3
##WORKING    : 15.0 mm
##DET_NAME   : EDAX All
##DET_MODE   : MediumLE
#SPECTRUM    :
20,
210,
5162,
8117,
65336,
5726,
3107,
7394,
5047,
29686,
8506,
24635,
87207,
40545,
3596,
2921,
3770,
2843,
2864,
2766,
2860,
2897,
2682,
4398,
10982,
3362,
13402,
5470,
2593,
3639,
2132,
1976,
5841,
2183,
1747,
2160,
1715,
1581,
1438,
1538,
1406,
1370,
2003,
1372,
1227,
3005,
7020,
1214,
1092,
1066,
1614,
1293,
906,
963,
874,
865,
822,
783,
757,
766,
708,
668,
645,
674,
574,
566,
574,
549,
505,
560,
526,
481,
457,
463,
437,
427,
379,
374,
393,
333,
346,
349,
336,
313,
260,
290,
296,
277,
237,
229,
233,
232,
208,
175,
200,
171,
166,
171,
146,
155,
136,
118,
152,
109,
112,
97,
93,
92,
99,
78,
72,
77,
66,
74,
47,
62,
61,
56,
51,
47,
39,
35,
31,
38,
27,
26,
17,
34,
22,
26,
22,
19,
10,
11,
10,
8,
8,
6,
6,
1,
3,
0,
0,
0,
0,
0,
0,
0,
0,
0,
0,
1,
0,
0,
0,
0,
0,
0,
0,
0,
0,
0,
0,
0,
0,
0,
0,
0,
1,
0,
0,
0,
0,
0,
0,
0,
0,
0,
0,
0,
0,
0,
0,
0,
0,
0,
0,
0,
0,
0,
0,
0,
0,
0,
0,
0,
0,
0,
0,
0,
0,
0,
0,
0,
0,
0,
0,
0,
0,
0,
0,
0,
0,
0,
0,
0,
0,
0,
0,
0,
0,
0,
0,
0,
0,
0,
0,
0,
0,
0,
0,
0,
0,
0,
0,
0,
0,
0,
0,
0,
0,
0,
0,
0,
0,
0,
0,
0,
0,
0,
0,
0,
0,
0,
0,
0,
0,
0,
0,
0,
0,
0,
0,
0,
0,
0,
0,
0,
0,
0,
0,
0,
0,
0,
0,
0,
0,
0,
0,
0,
0,
0,
0,
0,
0,
0,
0,
0,
0,
0,
0,
0,
0,
0,
#ENDOFDATA   :

File: GM IIIB K963[2][4].msa
#FORMAT      : EMSA/MAS Spectral Data File
#VERSION     : 1.0
#TITLE       : GM IIIB K963[2][all]
#DATE        : 10-SEP-2025
#TIME        : 16:16
#OWNER       : Unknown
#NPOINTS     : 4096
#NCOLUMNS    : 1
#XUNITS      : eV
#YUNITS      : counts
#DATATYPE    : Y
#XPERCHAN    : 9.99778
#OFFSET      : 1.69135
#BEAMKV      : 20
#SIGNALTYPE  : EDS
#ELEVANGLE   : 35
#AZIMANGLE   : 0
#LIVETIME    : 240.106
#REALTIME    : 261.549
#PROBECUR    : 1.22413
#TAUWIND     : 0
#TDEADLYR    : 0
#TACTLYR     : 0.045
#TALWIND     : 0.025
#CHOFFSET    : 0.0
#XLABEL      : Energy (eV)
#YLABEL      : Counts
#XPOSITION   : 9.23851
#YPOSITION   : 12.47988
#ZPOSITION   : 34.06144
#EDSDET      : SD
##SPECIMEN   : GM IIIB K963[2][all]
##D2STDCMP   : K963,(O:31.92),(Mg:0.14),(Si:21.99),(P:0.36),(Ti:0.28),(Cr:0.3),(Ni:0.34),(Zn:3.0),(Ge:0.42),(Zr:0.53),(Ba:39.52),(Eu:0.88),(Th:0.13),(U:0.17)
##DET_HASH   : 12273538-fd48-a23f-0a19-f1e6fa85caef
##CALIB_HASH : 6abaa72c-aa41-8738-0be9-f592914732f3
##WORKING    : 15.0 mm
##DET_NAME   : EDAX All
##DET_MODE   : MediumLE
#SPECTRUM    :
28,
328,
8155,
10958,
70604,
5897,
6554,
11745,
5895,
7114,
5676,
6824,
56505,
28618,
5733,
6050,
5434,
5202,
4989,
5455,
5051,
4871,
5040,
4998,
4753,
4657,
4339,
4302,
5877,
4438,
4080,
7832,
66282,
4726,
15189,
20781,
5528,
12862,
3485,
5229,
4695,
3879,
3818,
2717,
2407,
2492,
2914,
2310,
2158,
2210,
2087,
1980,
1905,
2433,
2103,
1763,
1757,
1668,
1654,
1798,
1693,
2765,
3655,
1441,
1454,
1398,
1403,
1306,
1597,
1421,
1303,
1318,
1129,
1054,
1037,
987,
1008,
899,
936,
883,
854,
847,
793,
753,
777,
703,
631,
616,
631,
601,
630,
571,
554,
543,
469,
504,
439,
451,
375,
391,
372,
373,
352,
321,
319,
294,
278,
290,
263,
270,
232,
203,
230,
181,
180,
169,
152,
140,
133,
132,
121,
108,
106,
88,
102,
92,
82,
79,
52,
52,
52,
47,
37,
41,
39,
24,
31,
15,
9,
10,
7,
11,
2,
1,
4,
0,
3,
2,
0,
3,
0,
1,
1,
0,
1,
0,
0,
2,
1,
2,
0,
1,
0,
1,
0,
0,
3,
0,
1,
0,
0,
0,
0,
0,
1,
0,
0,
0,
0,
0,
0,
0,
0,
0,
1,
0,
0,
0,
0,
0,
0,
0,
0,
1,
0,
0,
0,
0,
0,
0,
0,
0,
1,
0,
0,
0,
0,
0,
0,
0,
0,
0,
0,
0,
0,
0,
0,
0,
0,
0,
0,
0,
0,
0,
0,
0,
0,
0,
0,
0,
0,
0,
0,
0,
0,
0,
0,
0,
0,
0,
0,
0,
0,
0,
0,
0,
0,
0,
0,
0,
0,
0,
0,
0,
0,
0,
0,
0,
0,
0,
0,
0,
0,
0,
0,
0,
0,
0,
0,
0,
0,
0,
0,
0,
0,
0,
0,
0,
0,
0,
0,
0,
0,
0,
0,
0,
0,
0,
0,
0,
0,
0,
0,
0,
#ENDOFDATA   :

File: GM IIIB K963[3][4].msa
#FORMAT      : EMSA/MAS Spectral Data File
#VERSION     : 1.0
#TITLE       : GM IIIB K963[3][all]
#DATE        : 10-SEP-2025
#TIME        : 16:18
#OWNER       : Unknown
#NPOINTS     : 4096
#NCOLUMNS    : 1
#XUNITS      : eV
#YUNITS      : counts
#DATATYPE    : Y
#XPERCHAN    : 9.99778
#OFFSET      : 1.69135
#BEAMKV      : 20
#SIGNALTYPE  : EDS
#ELEVANGLE   : 35
#AZIMANGLE   : 0
#LIVETIME    : 240.153
#REALTIME    : 261.61
#PROBECUR    : 1.22413
#TAUWIND     : 0
#TDEADLYR    : 0
#TACTLYR     : 0.045
#TALWIND     : 0.025
#CHOFFSET    : 0.0
#XLABEL      : Energy (eV)
#YLABEL      : Counts
#XPOSITION   : 9.18582
#YPOSITION   : 12.43052
#ZPOSITION   : 34.06144
#EDSDET      : SD
##SPECIMEN   : GM IIIB K963[3][all]
##D2STDCMP   : K963,(O:31.92),(Mg:0.14),(Si:21.99),(P:0.36),(Ti:0.28),(Cr:0.3),(Ni:0.34),(Zn:3.0),(Ge:0.42),(Zr:0.53),(Ba:39.52),(Eu:0.88),(Th:0.13),(U:0.17)
##DET_HASH   : 12273538-fd48-a23f-0a19-f1e6fa85caef
##CALIB_HASH : 6abaa72c-aa41-8738-0be9-f592914732f3
##WORKING    : 15.0 mm
##DET_NAME   : EDAX All
##DET_MODE   : MediumLE
#SPECTRUM    :
13,
344,
7949,
11076,
71162,
5797,
6428,
11732,
5825,
7174,
5661,
6707,
56406,
28297,
5746,
5987,
5621,
4990,
4963,
5077,
5007,
4963,
5006,
4862,
4797,
4713,
4365,
4237,
5905,
4556,
4109,
7981,
66128,
4793,
15125,
21058,
5369,
12867,
3465,
5173,
4705,
3979,
3953,
2615,
2392,
2471,
2782,
2415,
2134,
2222,
2054,
2007,
1978,
2463,
2056,
1849,
1730,
1673,
1728,
1728,
1600,
2806,
3670,
1447,
1459,
1457,
1295,
1345,
1634,
1455,
1415,
1275,
1103,
1080,
1054,
1032,
979,
1000,
948,
879,
863,
842,
772,
766,
703,
695,
702,
656,
685,
600,
627,
556,
583,
527,
502,
429,
448,
425,
401,
410,
435,
377,
353,
343,
319,
290,
279,
281,
264,
249,
240,
200,
226,
183,
175,
170,
172,
145,
151,
121,
139,
127,
118,
91,
71,
80,
94,
67,
67,
53,
48,
55,
52,
43,
32,
32,
29,
20,
17,
10,
7,
10,
6,
3,
0,
1,
2,
2,
1,
3,
1,
3,
0,
1,
1,
1,
0,
0,
0,
0,
0,
4,
0,
0,
1,
0,
2,
0,
0,
0,
0,
0,
1,
0,
0,
0,
0,
0,
0,
0,
0,
0,
1,
0,
0,
0,
0,
0,
1,
0,
0,
0,
0,
0,
0,
0,
0,
0,
0,
0,
0,
0,
0,
0,
1,
0,
0,
0,
1,
0,
0,
0,
0,
0,
0,
0,
0,
0,
0,
0,
0,
0,
0,
0,
0,
0,
0,
0,
0,
0,
0,
0,
0,
0,
0,
0,
0,
0,
0,
0,
0,
0,
0,
0,
0,
0,
0,
0,
0,
0,
0,
0,
0,
0,
0,
0,
0,
0,
0,
0,
0,
0,
0,
0,
0,
0,
0,
0,
0,
0,
0,
0,
0,
0,
0,
0,
0,
0,
0,
0,
0,
0,
0,
0,
0,
0,
0,
0,
0,
0,
0,
0,
0,
0,
#ENDOFDATA   :

File: GM IIIB K963[4][4].msa
#FORMAT      : EMSA/MAS Spectral Data File
#VERSION     : 1.0
#TITLE       : GM IIIB K963[4][all]
#DATE        : 10-SEP-2025
#TIME        : 16:19
#OWNER       : Unknown
#NPOINTS     : 4096
#NCOLUMNS    : 1
#XUNITS      : eV
#YUNITS      : counts
#DATATYPE    : Y
#XPERCHAN    : 9.99778
#OFFSET      : 1.69135
#BEAMKV      : 20
#SIGNALTYPE  : EDS
#ELEVANGLE   : 35
#AZIMANGLE   : 0
#LIVETIME    : 240.2049
#REALTIME    : 261.666
#PROBECUR    : 1.22413
#TAUWIND     : 0
#TDEADLYR    : 0
#TACTLYR     : 0.045
#TALWIND     : 0.025
#CHOFFSET    : 0.0
#XLABEL      : Energy (eV)
#YLABEL      : Counts
#XPOSITION   : 9.27903
#YPOSITION   : 12.37729
#ZPOSITION   : 34.06144
#EDSDET      : SD
##SPECIMEN   : GM IIIB K963[4][all]
##D2STDCMP   : K963,(O:31.92),(Mg:0.14),(Si:21.99),(P:0.36),(Ti:0.28),(Cr:0.3),(Ni:0.34),(Zn:3.0),(Ge:0.42),(Zr:0.53),(Ba:39.52),(Eu:0.88),(Th:0.13),(U:0.17)
##DET_HASH   : 12273538-fd48-a23f-0a19-f1e6fa85caef
##CALIB_HASH : 6abaa72c-aa41-8738-0be9-f592914732f3
##WORKING    : 15.0 mm
##DET_NAME   : EDAX All
##DET_MODE   : MediumLE
#SPECTRUM    :
25,
369,
8121,
10956,
71100,
5769,
6508,
11867,
5844,
7251,
5482,
6742,
56137,
28432,
5771,
5921,
5518,
5037,
5070,
5099,
5155,
4964,
5001,
4935,
4717,
4622,
4454,
4390,
5919,
4391,
4156,
7968,
66029,
4785,
15149,
21023,
5408,
12866,
3439,
5248,
4661,
3704,
4050,
2647,
2413,
2370,
2802,
2335,
2224,
2215,
2001,
1981,
1981,
2494,
2121,
1865,
1811,
1742,
1698,
1770,
1611,
2908,
3644,
1522,
1391,
1393,
1397,
1316,
1544,
1434,
1394,
1312,
1151,
1067,
1075,
1028,
981,
919,
1001,
886,
914,
796,
809,
749,
744,
696,
663,
657,
630,
647,
628,
589,
515,
489,
514,
429,
441,
423,
403,
384,
427,
385,
339,
324,
299,
270,
328,
244,
264,
211,
233,
215,
228,
163,
170,
154,
173,
151,
152,
120,
110,
120,
101,
104,
78,
86,
88,
83,
77,
57,
55,
46,
40,
36,
43,
36,
33,
23,
23,
23,
8,
6,
4,
4,
0,
2,
2,
1,
0,
0,
1,
0,
3,
0,
0,
0,
1,
1,
2,
1,
1,
2,
2,
0,
0,
0,
0,
0,
0,
0,
1,
0,
0,
0,
0,
0,
0,
1,
1,
1,
0,
0,
0,
0,
0,
0,
0,
0,
0,
0,
0,
0,
0,
0,
0,
0,
0,
0,
1,
1,
0,
0,
0,
0,
0,
0,
0,
1,
0,
0,
0,
0,
0,
0,
0,
0,
0,
0,
0,
0,
0,
0,
0,
0,
0,
0,
0,
0,
0,
0,
0,
0,
0,
0,
0,
0,
0,
0,
0,
0,
0,
0,
0,
0,
0,
0,
0,
0,
0,
0,
0,
0,
0,
0,
0,
0,
0,
0,
0,
0,
0,
0,
0,
0,
0,
0,
0,
0,
0,
0,
0,
0,
0,
0,
0,
0,
0,
0,
0,
0,
0,
0,
0,
0,
0,
0,
0,
0,
0,
0,
0,
0,
0,
0,
#ENDOFDATA   :

File: GM IIIB K968[0][4].msa
#FORMAT      : EMSA/MAS Spectral Data File
#VERSION     : 1.0
#TITLE       : GM IIIB K968[0][all]
#DATE        : 10-SEP-2025
#TIME        : 16:20
#OWNER       : Unknown
#NPOINTS     : 4096
#NCOLUMNS    : 1
#XUNITS      : eV
#YUNITS      : counts
#DATATYPE    : Y
#XPERCHAN    : 9.99778
#OFFSET      : 1.69135
#BEAMKV      : 20
#SIGNALTYPE  : EDS
#ELEVANGLE   : 35
#AZIMANGLE   : 0
#LIVETIME    : 240.246
#REALTIME    : 266.6
#PROBECUR    : 1.22413
#TAUWIND     : 0
#TDEADLYR    : 0
#TACTLYR     : 0.045
#TALWIND     : 0.025
#CHOFFSET    : 0.0
#XLABEL      : Energy (eV)
#YLABEL      : Counts
#XPOSITION   : 7.16612
#YPOSITION   : 12.22077
#ZPOSITION   : 34.06144
#EDSDET      : SD
##SPECIMEN   : GM IIIB K968[0][all]
##D2STDCMP   : K968,(O:16.62),(Mg:0.08),(P:0.2),(Ti:0.16),(Cr:0.17),(Ni:0.19),(Ge:26.27),(Zr:0.3),(Ba:0.45),(Eu:0.49),(Pb:54.91),(Th:0.08),(U:0.09)
##DET_HASH   : 12273538-fd48-a23f-0a19-f1e6fa85caef
##CALIB_HASH : 6abaa72c-aa41-8738-0be9-f592914732f3
##WORKING    : 15.0 mm
##DET_NAME   : EDAX All
##DET_MODE   : MediumLE
#SPECTRUM    :
31,
575,
11521,
7501,
25257,
8897,
8619,
10263,
26067,
37970,
7776,
8249,
9254,
16941,
9818,
10067,
17964,
128969,
23012,
12247,
5943,
6676,
7927,
6335,
5758,
6087,
5776,
5862,
5612,
5455,
5535,
5483,
7200,
5466,
5440,
5513,
5158,
5202,
4920,
5130,
4682,
4711,
4881,
4349,
4204,
4422,
4700,
4059,
3898,
3946,
3707,
3598,
3532,
4032,
3593,
3232,
3268,
3170,
3110,
3024,
2845,
2825,
2853,
2665,
2623,
2878,
2928,
2420,
2407,
2662,
13728,
13488,
2489,
2124,
3050,
10928,
6112,
2010,
3865,
3077,
1680,
1626,
1574,
1501,
1492,
1452,
1413,
1559,
1398,
1886,
4640,
2084,
1212,
1254,
1062,
931,
921,
795,
806,
780,
774,
668,
689,
706,
635,
874,
773,
563,
647,
568,
468,
467,
428,
408,
334,
384,
333,
320,
347,
282,
265,
278,
241,
236,
215,
203,
205,
179,
167,
122,
126,
108,
107,
84,
92,
74,
58,
66,
47,
46,
28,
17,
9,
15,
2,
6,
5,
4,
4,
7,
5,
5,
3,
2,
2,
6,
6,
4,
2,
6,
0,
4,
1,
2,
2,
2,
3,
4,
0,
2,
3,
2,
2,
0,
0,
2,
2,
4,
1,
0,
2,
1,
1,
1,
2,
2,
2,
1,
1,
0,
1,
2,
0,
1,
2,
1,
0,
0,
0,
0,
1,
0,
1,
0,
0,
0,
0,
0,
0,
0,
0,
0,
0,
0,
0,
1,
0,
0,
0,
1,
0,
0,
0,
0,
1,
0,
0,
0,
0,
0,
0,
0,
0,
0,
0,
0,
0,
0,
0,
0,
0,
0,
0,
0,
0,
0,
0,
0,
0,
0,
0,
0,
0,
0,
0,
0,
0,
0,
0,
0,
0,
0,
0,
0,
0,
0,
0,
0,
0,
0,
0,
0,
0,
0,
0,
0,
0,
0,
0,
0,
0,
0,
0,
0,
0,
0,
0,
0,
0,
0,
0,
0,
0,
0,
#ENDOFDATA   :

File: GM IIIB K968[1][4].msa
#FORMAT      : EMSA/MAS Spectral Data File
#VERSION     : 1.0
#TITLE       : GM IIIB K968[1][all]
#DATE        : 10-SEP-2025
#TIME        : 16:21
#OWNER       : Unknown
#NPOINTS     : 4096
#NCOLUMNS    : 1
#XUNITS      : eV
#YUNITS      : counts
#DATATYPE    : Y
#XPERCHAN    : 9.99778
#OFFSET      : 1.69135
#BEAMKV      : 20
#SIGNALTYPE  : EDS
#ELEVANGLE   : 35
#AZIMANGLE   : 0
#LIVETIME    : 240.2726
#REALTIME    : 266.541
#PROBECUR    : 1.22413
#TAUWIND     : 0
#TDEADLYR    : 0
#TACTLYR     : 0.045
#TALWIND     : 0.025
#CHOFFSET    : 0.0
#XLABEL      : Energy (eV)
#YLABEL      : Counts
#XPOSITION   : 7.2557
#YPOSITION   : 12.21592
#ZPOSITION   : 34.06144
#EDSDET      : SD
##SPECIMEN   : GM IIIB K968[1][all]
##D2STDCMP   : K968,(O:16.62),(Mg:0.08),(P:0.2),(Ti:0.16),(Cr:0.17),(Ni:0.19),(Ge:26.27),(Zr:0.3),(Ba:0.45),(Eu:0.49),(Pb:54.91),(Th:0.08),(U:0.09)
##DET_HASH   : 12273538-fd48-a23f-0a19-f1e6fa85caef
##CALIB_HASH : 6abaa72c-aa41-8738-0be9-f592914732f3
##WORKING    : 15.0 mm
##DET_NAME   : EDAX All
##DET_MODE   : MediumLE
#SPECTRUM    :
20,
599,
11730,
7624,
25202,
8859,
8409,
10048,
25904,
37407,
7815,
7989,
8942,
17002,
9566,
10179,
17827,
128885,
23177,
12391,
6014,
6688,
7921,
6275,
5922,
6005,
5872,
5611,
5541,
5319,
5501,
5381,
7247,
5555,
5532,
5542,
5127,
5021,
4983,
5026,
4608,
4729,
4930,
4400,
4257,
4220,
4824,
4026,
3968,
3961,
3910,
3701,
3441,
3925,
3628,
3293,
3251,
3183,
3115,
3150,
2952,
2870,
2810,
2678,
2658,
2910,
2921,
2521,
2504,
2664,
13724,
13590,
2384,
2172,
3120,
10807,
6136,
2129,
3746,
3000,
1682,
1636,
1576,
1460,
1489,
1328,
1399,
1468,
1424,
1954,
4772,
2068,
1264,
1254,
993,
917,
879,
836,
793,
867,
750,
703,
710,
656,
662,
848,
785,
570,
606,
569,
516,
469,
410,
415,
405,
363,
346,
294,
313,
271,
287,
285,
242,
220,
219,
184,
187,
159,
148,
145,
127,
119,
109,
96,
82,
81,
57,
74,
67,
46,
29,
24,
10,
4,
7,
6,
5,
5,
4,
1,
3,
3,
6,
5,
7,
4,
0,
3,
3,
2,
5,
2,
2,
2,
3,
3,
1,
2,
3,
4,
0,
1,
1,
0,
0,
2,
1,
3,
2,
0,
2,
0,
0,
1,
1,
1,
2,
2,
0,
2,
1,
1,
0,
1,
0,
0,
1,
0,
1,
1,
1,
0,
0,
0,
1,
0,
0,
1,
0,
0,
1,
0,
0,
0,
0,
0,
0,
0,
0,
0,
0,
0,
0,
0,
1,
0,
0,
0,
0,
0,
0,
0,
0,
0,
0,
1,
0,
0,
0,
0,
0,
0,
0,
0,
0,
0,
0,
0,
0,
0,
0,
0,
0,
0,
0,
0,
0,
0,
0,
0,
0,
0,
0,
0,
0,
0,
0,
0,
0,
0,
0,
0,
0,
0,
0,
0,
0,
0,
0,
0,
0,
0,
0,
0,
0,
0,
0,
0,
0,
0,
0,
0,
0,
0,
#ENDOFDATA   :

File: GM IIIB K968[3][4].msa
#FORMAT      : EMSA/MAS Spectral Data File
#VERSION     : 1.0
#TITLE       : GM IIIB K968[3][all]
#DATE        : 10-SEP-2025
#TIME        : 16:24
#OWNER       : Unknown
#NPOINTS     : 4096
#NCOLUMNS    : 1
#XUNITS      : eV
#YUNITS      : counts
#DATATYPE    : Y
#XPERCHAN    : 9.99778
#OFFSET      : 1.69135
#BEAMKV      : 20
#SIGNALTYPE  : EDS
#ELEVANGLE   : 35
#AZIMANGLE   : 0
#LIVETIME    : 240.246
#REALTIME    : 266.597
#PROBECUR    : 1.22413
#TAUWIND     : 0
#TDEADLYR    : 0
#TACTLYR     : 0.045
#TALWIND     : 0.025
#CHOFFSET    : 0.0
#XLABEL      : Energy (eV)
#YLABEL      : Counts
#XPOSITION   : 7.10853
#YPOSITION   : 12.25957
#ZPOSITION   : 34.06144
#EDSDET      : SD
##SPECIMEN   : GM IIIB K968[3][all]
##D2STDCMP   : K968,(O:16.62),(Mg:0.08),(P:0.2),(Ti:0.16),(Cr:0.17),(Ni:0.19),(Ge:26.27),(Zr:0.3),(Ba:0.45),(Eu:0.49),(Pb:54.91),(Th:0.08),(U:0.09)
##DET_HASH   : 12273538-fd48-a23f-0a19-f1e6fa85caef
##CALIB_HASH : 6abaa72c-aa41-8738-0be9-f592914732f3
##WORKING    : 15.0 mm
##DET_NAME   : EDAX All
##DET_MODE   : MediumLE
#SPECTRUM    :
23,
560,
11894,
7464,
24772,
8966,
8685,
10120,
26015,
37786,
7825,
8197,
9124,
16911,
9766,
9926,
17898,
128781,
22877,
12378,
6057,
6586,
7874,
6175,
5915,
6015,
5842,
5862,
5469,
5499,
5501,
5345,
7213,
5498,
5525,
5563,
5075,
5055,
5003,
5176,
4765,
4785,
5002,
4360,
4289,
4357,
4760,
4087,
3909,
3880,
3719,
3629,
3503,
4026,
3678,
3329,
3174,
3164,
3142,
3046,
2899,
2879,
2802,
2682,
2693,
2912,
2961,
2445,
2467,
2661,
13842,
13429,
2364,
2300,
3041,
10758,
6015,
2084,
3629,
3031,
1753,
1674,
1600,
1466,
1404,
1332,
1376,
1532,
1379,
1856,
4992,
2099,
1263,
1184,
1018,
950,
904,
765,
773,
801,
740,
679,
648,
667,
684,
826,
747,
622,
595,
557,
469,
431,
449,
430,
365,
340,
334,
309,
275,
288,
247,
260,
273,
234,
216,
179,
177,
172,
160,
146,
157,
126,
91,
98,
84,
74,
67,
40,
42,
36,
33,
21,
11,
2,
9,
4,
1,
6,
4,
7,
3,
5,
6,
4,
6,
1,
3,
5,
1,
1,
4,
3,
4,
2,
5,
2,
1,
2,
1,
3,
1,
2,
1,
1,
0,
3,
0,
2,
2,
2,
1,
4,
1,
1,
0,
1,
0,
3,
1,
0,
2,
1,
1,
0,
0,
1,
0,
0,
0,
0,
0,
1,
1,
0,
0,
1,
0,
0,
0,
0,
0,
0,
0,
0,
1,
0,
0,
0,
0,
0,
0,
0,
0,
0,
0,
0,
0,
0,
0,
0,
0,
0,
0,
0,
0,
0,
0,
0,
0,
0,
0,
0,
0,
0,
0,
0,
0,
0,
0,
0,
0,
0,
0,
0,
0,
0,
0,
0,
0,
0,
0,
0,
0,
0,
0,
0,
0,
0,
0,
0,
0,
0,
0,
0,
0,
0,
0,
0,
0,
0,
0,
0,
0,
0,
0,
0,
0,
0,
0,
0,
0,
0,
0,
0,
#ENDOFDATA   :

File: GM IIIB K968[4][4].msa
#FORMAT      : EMSA/MAS Spectral Data File
#VERSION     : 1.0
#TITLE       : GM IIIB K968[4][all]
#DATE        : 10-SEP-2025
#TIME        : 16:25
#OWNER       : Unknown
#NPOINTS     : 4096
#NCOLUMNS    : 1
#XUNITS      : eV
#YUNITS      : counts
#DATATYPE    : Y
#XPERCHAN    : 9.99778
#OFFSET      : 1.69135
#BEAMKV      : 20
#SIGNALTYPE  : EDS
#ELEVANGLE   : 35
#AZIMANGLE   : 0
#LIVETIME    : 240.25
#REALTIME    : 266.6013
#PROBECUR    : 1.22413
#TAUWIND     : 0
#TDEADLYR    : 0
#TACTLYR     : 0.045
#TALWIND     : 0.025
#CHOFFSET    : 0.0
#XLABEL      : Energy (eV)
#YLABEL      : Counts
#XPOSITION   : 7.14538
#YPOSITION   : 12.24511
#ZPOSITION   : 34.06144
#EDSDET      : SD
##SPECIMEN   : GM IIIB K968[4][all]
##D2STDCMP   : K968,(O:16.62),(Mg:0.08),(P:0.2),(Ti:0.16),(Cr:0.17),(Ni:0.19),(Ge:26.27),(Zr:0.3),(Ba:0.45),(Eu:0.49),(Pb:54.91),(Th:0.08),(U:0.09)
##DET_HASH   : 12273538-fd48-a23f-0a19-f1e6fa85caef
##CALIB_HASH : 6abaa72c-aa41-8738-0be9-f592914732f3
##WORKING    : 15.0 mm
##DET_NAME   : EDAX All
##DET_MODE   : MediumLE
#SPECTRUM    :
37,
553,
11553,
7508,
24820,
8817,
8656,
10265,
25983,
37432,
7790,
8178,
9172,
16889,
9671,
10044,
18055,
129396,
23119,
12282,
6068,
6505,
7985,
6202,
5908,
6058,
5870,
5725,
5484,
5337,
5422,
5387,
7353,
5370,
5406,
5502,
5113,
5046,
4919,
5110,
4717,
4686,
4909,
4365,
4285,
4422,
4829,
4079,
4069,
3906,
3862,
3601,
3559,
4133,
3568,
3321,
3294,
3104,
3076,
3131,
2966,
2785,
2757,
2779,
2714,
2877,
2947,
2474,
2422,
2651,
13681,
13604,
2359,
2173,
3152,
10813,
6102,
2110,
3842,
2980,
1698,
1544,
1507,
1550,
1418,
1334,
1396,
1502,
1413,
1914,
4740,
2191,
1192,
1240,
1033,
936,
895,
844,
784,
826,
734,
686,
731,
696,
657,
890,
750,
597,
615,
535,
468,
449,
431,
423,
386,
374,
358,
290,
296,
319,
287,
262,
261,
247,
199,
189,
184,
169,
153,
150,
135,
135,
95,
111,
81,
95,
76,
58,
37,
34,
26,
25,
12,
8,
2,
10,
3,
7,
4,
4,
1,
4,
1,
6,
1,
1,
6,
3,
4,
5,
5,
1,
1,
2,
4,
4,
1,
1,
2,
5,
1,
2,
2,
2,
3,
2,
1,
3,
3,
1,
3,
1,
0,
0,
2,
1,
1,
0,
0,
1,
1,
0,
1,
1,
2,
2,
0,
0,
0,
0,
0,
0,
2,
0,
0,
1,
0,
0,
0,
0,
0,
0,
0,
0,
0,
0,
0,
0,
0,
0,
0,
1,
0,
0,
0,
0,
0,
0,
0,
0,
0,
0,
0,
0,
0,
0,
0,
0,
0,
0,
0,
0,
0,
0,
0,
0,
0,
0,
0,
0,
0,
0,
0,
0,
0,
0,
0,
0,
0,
0,
0,
0,
0,
0,
0,
0,
0,
0,
0,
0,
0,
0,
0,
0,
0,
0,
0,
0,
0,
0,
0,
0,
0,
0,
0,
0,
0,
0,
0,
0,
0,
0,
0,
0,
#ENDOFDATA   :

File: GM IIIB K978[1][4].msa
#FORMAT      : EMSA/MAS Spectral Data File
#VERSION     : 1.0
#TITLE       : GM IIIB K978[1][all]
#DATE        : 10-SEP-2025
#TIME        : 16:33
#OWNER       : Unknown
#NPOINTS     : 4096
#NCOLUMNS    : 1
#XUNITS      : eV
#YUNITS      : counts
#DATATYPE    : Y
#XPERCHAN    : 9.99778
#OFFSET      : 1.69135
#BEAMKV      : 20
#SIGNALTYPE  : EDS
#ELEVANGLE   : 35
#AZIMANGLE   : 0
#LIVETIME    : 240.135
#REALTIME    : 259.758
#PROBECUR    : 1.22413
#TAUWIND     : 0
#TDEADLYR    : 0
#TACTLYR     : 0.045
#TALWIND     : 0.025
#CHOFFSET    : 0.0
#XLABEL      : Energy (eV)
#YLABEL      : Counts
#XPOSITION   : 0.28519
#YPOSITION   : 11.38765
#ZPOSITION   : 34.06144
#EDSDET      : SD
##SPECIMEN   : GM IIIB K978[1][all]
##D2STDCMP   : K978,(O:39.39),(Mg:1.36),(Al:8.92),(Si:21.02),(K:1.87),(Ca:6.75),(Ti:0.67),(Rb:2.06),(Sr:10.05),(Cs:2.12),(La:1.92),(Eu:1.94),(Gd:1.95)
##DET_HASH   : 12273538-fd48-a23f-0a19-f1e6fa85caef
##CALIB_HASH : 6abaa72c-aa41-8738-0be9-f592914732f3
##WORKING    : 15.0 mm
##DET_NAME   : EDAX All
##DET_MODE   : MediumLE
#SPECTRUM    :
22,
234,
6729,
6586,
46495,
3520,
4963,
5135,
7837,
17827,
11876,
35992,
70305,
71547,
6200,
3504,
3961,
3544,
3485,
3485,
3571,
3602,
3447,
4804,
9848,
3932,
23384,
9185,
3716,
5812,
3542,
4395,
5208,
6170,
2932,
3031,
3503,
2555,
2557,
2292,
2052,
2440,
3518,
3365,
2087,
1746,
2603,
1950,
2370,
1965,
1561,
1638,
1382,
1440,
1378,
1266,
1251,
1166,
1149,
1109,
1040,
1057,
984,
952,
903,
911,
888,
849,
798,
773,
805,
760,
707,
710,
686,
609,
664,
591,
587,
589,
561,
531,
509,
501,
452,
449,
403,
410,
389,
360,
353,
361,
340,
301,
323,
402,
406,
257,
235,
258,
364,
638,
270,
214,
198,
175,
157,
175,
146,
130,
148,
126,
125,
189,
109,
121,
108,
81,
90,
74,
75,
72,
51,
67,
53,
47,
51,
31,
49,
44,
22,
30,
33,
24,
26,
20,
18,
14,
8,
4,
5,
6,
2,
0,
0,
0,
2,
0,
0,
0,
1,
0,
0,
0,
0,
1,
1,
0,
0,
0,
0,
0,
0,
1,
0,
0,
0,
0,
0,
1,
0,
0,
0,
0,
0,
0,
0,
0,
0,
0,
0,
0,
0,
0,
0,
0,
0,
0,
0,
0,
0,
0,
0,
0,
0,
0,
0,
0,
0,
0,
0,
0,
0,
0,
0,
0,
0,
0,
0,
0,
0,
0,
0,
0,
0,
0,
0,
0,
0,
0,
0,
0,
0,
0,
0,
0,
0,
0,
0,
0,
0,
0,
0,
0,
0,
0,
0,
0,
0,
0,
0,
0,
0,
0,
0,
0,
0,
0,
0,
0,
0,
0,
0,
0,
0,
0,
0,
0,
0,
0,
0,
0,
0,
0,
0,
0,
0,
0,
0,
0,
0,
0,
0,
0,
0,
0,
0,
0,
0,
0,
0,
0,
0,
0,
0,
0,
0,
0,
0,
0,
0,
0,
0,
0,
#ENDOFDATA   :

File: GM IIIB K978[3][4].msa
#FORMAT      : EMSA/MAS Spectral Data File
#VERSION     : 1.0
#TITLE       : GM IIIB K978[3][all]
#DATE        : 10-SEP-2025
#TIME        : 16:35
#OWNER       : Unknown
#NPOINTS     : 4096
#NCOLUMNS    : 1
#XUNITS      : eV
#YUNITS      : counts
#DATATYPE    : Y
#XPERCHAN    : 9.99778
#OFFSET      : 1.69135
#BEAMKV      : 20
#SIGNALTYPE  : EDS
#ELEVANGLE   : 35
#AZIMANGLE   : 0
#LIVETIME    : 240.132
#REALTIME    : 259.758
#PROBECUR    : 1.22413
#TAUWIND     : 0
#TDEADLYR    : 0
#TACTLYR     : 0.045
#TALWIND     : 0.025
#CHOFFSET    : 0.0
#XLABEL      : Energy (eV)
#YLABEL      : Counts
#XPOSITION   : 0.19292
#YPOSITION   : 11.49811
#ZPOSITION   : 34.06144
#EDSDET      : SD
##SPECIMEN   : GM IIIB K978[3][all]
##D2STDCMP   : K978,(O:39.39),(Mg:1.36),(Al:8.92),(Si:21.02),(K:1.87),(Ca:6.75),(Ti:0.67),(Rb:2.06),(Sr:10.05),(Cs:2.12),(La:1.92),(Eu:1.94),(Gd:1.95)
##DET_HASH   : 12273538-fd48-a23f-0a19-f1e6fa85caef
##CALIB_HASH : 6abaa72c-aa41-8738-0be9-f592914732f3
##WORKING    : 15.0 mm
##DET_NAME   : EDAX All
##DET_MODE   : MediumLE
#SPECTRUM    :
20,
266,
6756,
6355,
46155,
3419,
4954,
5026,
7791,
17899,
11842,
35883,
70068,
72338,
6095,
3515,
4185,
3676,
3558,
3706,
3529,
3676,
3455,
4743,
9865,
3925,
23239,
9109,
3706,
5760,
3514,
4397,
5092,
6260,
2990,
3134,
3585,
2580,
2484,
2245,
2061,
2371,
3542,
3524,
2164,
1791,
2668,
1932,
2368,
1925,
1540,
1665,
1386,
1441,
1336,
1281,
1284,
1206,
1134,
1078,
1005,
1056,
966,
956,
939,
911,
860,
844,
772,
765,
701,
724,
708,
636,
709,
648,
591,
565,
633,
545,
515,
523,
475,
494,
459,
459,
418,
368,
355,
379,
329,
328,
365,
322,
297,
388,
360,
268,
241,
227,
384,
669,
314,
206,
192,
157,
154,
160,
150,
149,
116,
137,
147,
178,
126,
108,
91,
71,
77,
72,
63,
68,
56,
64,
52,
54,
35,
46,
30,
33,
27,
19,
25,
22,
23,
15,
17,
8,
8,
5,
1,
6,
1,
4,
0,
0,
0,
0,
2,
0,
0,
0,
0,
0,
2,
0,
1,
0,
0,
0,
0,
1,
1,
0,
1,
0,
0,
0,
0,
0,
0,
0,
0,
1,
0,
0,
0,
0,
0,
0,
0,
0,
0,
0,
0,
0,
0,
0,
0,
0,
0,
0,
0,
0,
0,
0,
0,
0,
0,
0,
0,
0,
0,
0,
0,
0,
0,
1,
0,
0,
0,
0,
0,
0,
0,
0,
0,
0,
0,
0,
0,
0,
0,
0,
0,
0,
0,
0,
0,
0,
0,
0,
0,
0,
0,
0,
0,
0,
0,
0,
0,
0,
0,
0,
0,
0,
0,
0,
0,
0,
0,
0,
0,
0,
0,
0,
0,
0,
0,
0,
0,
0,
0,
0,
0,
0,
0,
0,
0,
0,
0,
0,
0,
0,
0,
0,
0,
0,
0,
0,
0,
0,
0,
0,
0,
0,
0,
0,
0,
0,
0,
0,
0,
0,
#ENDOFDATA   :