Folder: spex_quant/N132962/Quantification/20 keV/Glass Mount IIIB (part 10)

File: NIST K411 std.msa
#FORMAT      : EMSA/MAS Spectral Data File
#VERSION     : 1.0
#TITLE       : 'NIST K411' standard for 'N132962' detector
#NPOINTS     : 4096
#NCOLUMNS    : 1
#XUNITS      : eV
#YUNITS      : counts
#DATATYPE    : Y
#SIGNALTYPE  : EDS
#XLABEL      : Energy (eV)
#YLABEL      : Counts
#XPERCHAN -eV: 9.99778
#OFFSET   -eV: 1.69135
#CHOFFSET    : 0
#OWNER       : Unknown
#ELEVANGLE   : 35
#BEAMKV   -kV: 20
#LIVETIME  -s: 1201.01
#REALTIME  -s: 1294.28
#PROBECUR -nA: 1.22574
##WORKING -mm: 15
##D2STDCMP   : NIST K411,(O:42.3643),(Mg:8.8471),(Si:25.3834),(Ca:11.0563),(Fe:11.2089)
##SIMILAR    : 1.1
#SPECTRUM    :
146,
1074,
35287,
34235,
282265,
60474,
15044,
18061,
23564,
374220,
23448,
28192,
368182,
173654,
19051,
16194,
19339,
16386,
16316,
16076,
15699,
16028,
15260,
14670,
14321,
17249,
172602,
63017,
19093,
35141,
11319,
10313,
10797,
10275,
9585,
9548,
9204,
8587,
8415,
8615,
7757,
7610,
8454,
7308,
7283,
35394,
97573,
7200,
6137,
6265,
16493,
10693,
5078,
5264,
5035,
4655,
4521,
4414,
4416,
4187,
4003,
3833,
3713,
3566,
3460,
3328,
3140,
3139,
3104,
2966,
2786,
2781,
2689,
2602,
2582,
2401,
2368,
2214,
2185,
2018,
1915,
1886,
1773,
1656,
1681,
1680,
1503,
1497,
1427,
1381,
1263,
1176,
1160,
1131,
1109,
1038,
1005,
956,
908,
828,
753,
770,
678,
700,
659,
524,
590,
550,
489,
521,
466,
404,
403,
405,
329,
319,
356,
290,
258,
271,
228,
175,
199,
184,
173,
164,
159,
112,
112,
116,
85,
89,
92,
80,
58,
49,
61,
33,
28,
19,
15,
11,
6,
3,
2,
3,
2,
1,
1,
3,
1,
1,
1,
1,
1,
0,
0,
0,
1,
0,
0,
0,
0,
0,
1,
0,
1,
0,
0,
2,
0,
0,
0,
0,
1,
0,
0,
1,
0,
0,
0,
0,
0,
0,
0,
0,
0,
0,
0,
0,
1,
0,
0,
0,
0,
1,
1,
0,
0,
0,
0,
0,
0,
0,
0,
0,
0,
0,
0,
0,
1,
0,
0,
0,
0,
0,
0,
0,
0,
0,
0,
0,
0,
0,
0,
0,
0,
0,
0,
0,
0,
0,
0,
0,
0,
0,
0,
0,
0,
0,
0,
0,
0,
0,
0,
0,
0,
0,
0,
0,
0,
0,
0,
0,
0,
0,
0,
0,
0,
0,
0,
0,
0,
0,
0,
0,
0,
0,
0,
0,
0,
0,
0,
0,
0,
0,
0,
0,
0,
0,
0,
0,
0,
0,
0,
0,
0,
0,
0,
0,
0,
0,
0,
0,
#ENDOFDATA   :

File: NIST K412 std.msa
#FORMAT      : EMSA/MAS Spectral Data File
#VERSION     : 1.0
#TITLE       : 'NIST K412' standard for 'N132962' detector
#NPOINTS     : 4096
#NCOLUMNS    : 1
#XUNITS      : eV
#YUNITS      : counts
#DATATYPE    : Y
#SIGNALTYPE  : EDS
#XLABEL      : Energy (eV)
#YLABEL      : Counts
#XPERCHAN -eV: 9.99778
#OFFSET   -eV: 1.69135
#CHOFFSET    : 0
#OWNER       : Unknown
#ELEVANGLE   : 35
#BEAMKV   -kV: 20
#LIVETIME  -s: 960.651
#REALTIME  -s: 1033.78
#PROBECUR -nA: 1.22574
##WORKING -mm: 15
##D2STDCMP   : NIST K412,(O:42.7559),(Mg:11.6575),(Al:4.9059),(Si:21.1996),(Ca:10.8991),(Fe:7.7420)
##SIMILAR    : 2.0
#SPECTRUM    :
84,
826,
29833,
27093,
223624,
38752,
12566,
15566,
20608,
407284,
28130,
72964,
231655,
111147,
15087,
12261,
14879,
12856,
12685,
12660,
12227,
12246,
11831,
11534,
10966,
12655,
135298,
49505,
14637,
27417,
8646,
8087,
8424,
7767,
7128,
7264,
6946,
6801,
6457,
6680,
5830,
5794,
6252,
5548,
5570,
21267,
55351,
5332,
4617,
4765,
10303,
7114,
4008,
4025,
3895,
3591,
3494,
3407,
3329,
3206,
3109,
2914,
2838,
2742,
2646,
2481,
2478,
2419,
2411,
2395,
2210,
2057,
2141,
1927,
1869,
1834,
1796,
1648,
1542,
1561,
1528,
1377,
1409,
1329,
1305,
1197,
1230,
1160,
1100,
1021,
1002,
973,
853,
861,
805,
853,
740,
665,
681,
621,
616,
593,
555,
536,
469,
477,
424,
398,
349,
368,
325,
301,
313,
282,
219,
244,
222,
203,
187,
204,
161,
165,
157,
152,
157,
117,
100,
105,
76,
75,
84,
72,
73,
53,
39,
39,
21,
31,
24,
22,
16,
6,
3,
0,
1,
1,
0,
1,
1,
0,
0,
0,
2,
2,
1,
1,
0,
0,
0,
1,
0,
0,
0,
0,
1,
1,
0,
0,
0,
0,
0,
0,
0,
0,
0,
0,
0,
0,
1,
0,
0,
0,
0,
0,
0,
0,
0,
0,
0,
0,
0,
0,
0,
0,
1,
0,
0,
0,
0,
0,
0,
0,
0,
0,
0,
0,
0,
0,
0,
0,
0,
0,
0,
0,
0,
0,
0,
0,
0,
0,
0,
0,
0,
0,
0,
0,
0,
0,
0,
0,
0,
0,
0,
0,
0,
0,
0,
0,
0,
0,
0,
0,
0,
0,
0,
0,
0,
0,
0,
0,
0,
0,
0,
0,
0,
0,
0,
0,
0,
0,
0,
0,
0,
0,
0,
0,
0,
0,
0,
0,
0,
0,
0,
0,
0,
0,
0,
0,
0,
0,
0,
0,
0,
0,
0,
0,
0,
0,
0,
0,
0,
0,
0,
0,
#ENDOFDATA   :

File: NIST K453 std.msa
#FORMAT      : EMSA/MAS Spectral Data File
#VERSION     : 1.0
#TITLE       : 'NIST K453' standard for 'N132962' detector
#NPOINTS     : 4096
#NCOLUMNS    : 1
#XUNITS      : eV
#YUNITS      : counts
#DATATYPE    : Y
#SIGNALTYPE  : EDS
#XLABEL      : Energy (eV)
#YLABEL      : Counts
#XPERCHAN -eV: 9.99778
#OFFSET   -eV: 1.69135
#CHOFFSET    : 0
#OWNER       : Unknown
#ELEVANGLE   : 35
#BEAMKV   -kV: 20
#LIVETIME  -s: 960.829
#REALTIME  -s: 1066.61
#PROBECUR -nA: 1.22574
##WORKING -mm: 15
##D2STDCMP   : NIST K453,(O:16.8392),(Ge:28.6501),(Pb:54.5107)
##SIMILAR    : 1.0
#SPECTRUM    :
99,
2223,
46789,
29632,
100118,
34860,
32828,
42474,
110654,
159315,
30448,
32383,
35603,
67493,
35003,
36510,
70839,
512773,
91189,
49887,
23715,
26424,
31628,
24214,
23159,
24055,
23529,
22898,
21987,
22093,
21903,
21510,
23645,
21609,
21546,
20871,
20257,
19715,
19308,
19058,
18530,
18212,
18044,
17445,
17138,
17130,
17983,
16149,
15709,
15310,
14982,
14707,
14253,
14584,
13712,
13182,
12771,
12589,
12413,
12039,
11714,
11341,
11221,
10721,
10524,
11326,
11844,
9675,
9711,
10511,
58755,
58265,
9632,
8640,
12212,
42896,
23930,
8210,
15742,
12602,
6656,
6432,
6235,
5900,
5701,
5517,
5532,
5940,
5672,
7490,
18665,
8298,
4839,
4960,
3983,
3726,
3597,
3376,
3324,
3097,
2964,
2831,
2759,
2620,
2681,
3317,
2942,
2285,
2390,
2227,
1837,
1777,
1687,
1582,
1495,
1516,
1416,
1278,
1240,
1155,
1041,
1009,
965,
889,
869,
827,
699,
644,
643,
588,
518,
476,
415,
337,
331,
269,
243,
199,
172,
166,
115,
92,
49,
21,
17,
26,
33,
23,
22,
24,
17,
25,
17,
15,
15,
10,
12,
6,
12,
9,
13,
17,
5,
9,
10,
7,
10,
9,
9,
5,
3,
12,
8,
6,
6,
8,
5,
9,
1,
5,
6,
5,
3,
6,
5,
8,
3,
4,
1,
2,
3,
4,
3,
1,
5,
4,
2,
1,
1,
0,
2,
3,
2,
1,
0,
2,
0,
3,
1,
1,
1,
2,
0,
0,
1,
1,
0,
0,
0,
0,
0,
1,
0,
0,
0,
0,
1,
0,
0,
1,
0,
0,
1,
0,
0,
0,
0,
0,
0,
0,
0,
0,
0,
0,
0,
0,
0,
0,
0,
0,
0,
0,
0,
0,
0,
0,
0,
0,
0,
0,
0,
0,
0,
0,
0,
0,
0,
0,
0,
0,
0,
0,
0,
0,
0,
0,
0,
0,
0,
0,
0,
0,
0,
0,
0,
0,
0,
0,
0,
0,
0,
0,
0,
0,
#ENDOFDATA   :

File: NIST K456 std.msa
#FORMAT      : EMSA/MAS Spectral Data File
#VERSION     : 1.0
#TITLE       : 'NIST K456' standard for 'N132962' detector
#NPOINTS     : 4096
#NCOLUMNS    : 1
#XUNITS      : eV
#YUNITS      : counts
#DATATYPE    : Y
#SIGNALTYPE  : EDS
#XLABEL      : Energy (eV)
#YLABEL      : Counts
#XPERCHAN -eV: 9.99778
#OFFSET   -eV: 1.69135
#CHOFFSET    : 0
#OWNER       : Unknown
#ELEVANGLE   : 35
#BEAMKV   -kV: 20
#LIVETIME  -s: 1201.24
#REALTIME  -s: 1337.05
#PROBECUR -nA: 1.22592
##WORKING -mm: 15
##D2STDCMP   : NIST K456,(O:20.4271),(Si:13.4490),(Pb:66.1239)
##SIMILAR    : 1.0
#SPECTRUM    :
101,
2711,
58823,
37005,
138653,
41352,
35586,
38553,
42226,
47398,
52025,
57168,
263038,
199676,
45283,
47301,
101264,
792808,
131282,
63562,
27545,
30533,
38325,
28573,
26453,
27856,
26553,
26821,
25865,
26747,
26640,
25128,
27407,
25093,
25604,
24614,
23549,
23409,
23023,
22493,
21966,
21720,
21370,
20833,
20530,
20498,
21439,
19052,
18654,
18401,
18137,
17698,
17085,
17981,
16700,
15979,
15566,
15127,
14922,
14512,
14148,
13591,
13475,
13234,
12845,
14335,
14383,
11912,
11478,
11389,
11114,
10678,
10535,
10331,
15842,
60345,
33119,
9621,
8738,
8459,
8287,
8217,
7809,
7336,
7150,
6854,
7034,
7315,
7014,
10066,
27341,
11685,
6302,
6409,
4781,
4424,
4302,
4194,
3958,
3795,
3671,
3595,
3494,
3325,
3212,
4491,
3840,
2888,
2961,
2649,
2279,
2213,
2051,
1959,
1914,
1749,
1595,
1578,
1416,
1376,
1339,
1182,
1179,
1096,
990,
958,
797,
795,
797,
707,
613,
577,
541,
447,
420,
379,
338,
287,
239,
166,
137,
116,
61,
20,
26,
26,
17,
20,
15,
18,
28,
24,
19,
18,
16,
12,
15,
11,
16,
10,
8,
7,
8,
10,
8,
9,
13,
4,
2,
5,
5,
5,
3,
10,
9,
14,
7,
2,
6,
7,
3,
7,
7,
2,
4,
3,
4,
3,
1,
4,
2,
4,
4,
5,
2,
5,
1,
3,
0,
2,
0,
2,
1,
2,
1,
1,
1,
1,
3,
1,
0,
0,
0,
2,
0,
0,
1,
0,
0,
0,
2,
0,
0,
1,
0,
0,
1,
0,
0,
0,
0,
0,
1,
0,
0,
0,
0,
0,
1,
1,
0,
0,
0,
0,
0,
0,
1,
0,
0,
0,
0,
0,
0,
0,
0,
0,
0,
0,
0,
0,
0,
0,
0,
0,
0,
0,
0,
0,
0,
0,
0,
0,
0,
0,
0,
0,
0,
0,
0,
0,
0,
0,
0,
0,
0,
0,
0,
0,
0,
0,
0,
0,
0,
0,
#ENDOFDATA   :

File: NIST K491 std.msa
#FORMAT      : EMSA/MAS Spectral Data File
#VERSION     : 1.0
#TITLE       : 'NIST K491' standard for 'N132962' detector
#NPOINTS     : 4096
#NCOLUMNS    : 1
#XUNITS      : eV
#YUNITS      : counts
#DATATYPE    : Y
#SIGNALTYPE  : EDS
#XLABEL      : Energy (eV)
#YLABEL      : Counts
#XPERCHAN -eV: 9.99778
#OFFSET   -eV: 1.69135
#CHOFFSET    : 0
#OWNER       : Unknown
#ELEVANGLE   : 35
#BEAMKV   -kV: 20
#LIVETIME  -s: 1201.28
#REALTIME  -s: 1333.89
#PROBECUR -nA: 1.22616
##WORKING -mm: 15
##D2STDCMP   : NIST K491,(Li:0.0005),(B:0.0342),(O:16.6482),(Al:0.0847),(Si:0.0888),(Ti:0.1559),(Fe:0.1819),(Ge:26.3598),(Zr:0.2961),(Ce:0.4559),(Ta:0.5897),(Pb:55.0955)
##SIMILAR    : 1.1
#SPECTRUM    :
135,
2960,
58605,
37688,
124069,
45487,
41268,
52099,
129842,
185586,
39492,
42425,
52337,
87426,
45292,
49328,
90028,
649484,
115243,
62777,
29782,
32644,
39346,
30823,
28486,
29952,
29441,
28938,
27851,
27794,
27579,
27144,
32511,
27078,
27767,
28445,
25256,
25397,
25748,
24291,
24276,
23254,
22280,
22257,
21741,
22490,
24279,
20250,
20008,
19176,
19229,
18778,
17981,
18884,
17515,
16684,
16342,
15906,
17518,
15745,
14736,
14612,
14140,
13530,
13403,
14685,
14907,
13195,
12465,
13492,
69579,
68581,
11844,
10792,
15479,
54731,
30580,
10520,
18903,
15483,
8678,
8395,
7533,
7589,
7238,
6928,
7239,
7391,
7288,
9366,
24004,
10726,
6333,
6158,
5143,
4644,
4429,
4303,
4200,
4075,
3767,
3609,
3444,
3349,
3324,
4354,
3897,
2988,
3072,
2788,
2376,
2322,
2090,
2058,
1849,
1860,
1752,
1675,
1624,
1399,
1376,
1384,
1229,
1154,
1079,
1021,
918,
869,
752,
776,
653,
621,
540,
506,
466,
401,
337,
267,
253,
196,
136,
129,
80,
48,
23,
35,
54,
20,
20,
20,
21,
13,
23,
14,
18,
13,
14,
17,
11,
16,
11,
15,
14,
9,
10,
8,
9,
11,
12,
7,
8,
9,
4,
7,
6,
4,
6,
9,
9,
4,
16,
7,
6,
6,
7,
5,
7,
5,
3,
4,
4,
3,
2,
4,
4,
6,
2,
5,
7,
3,
4,
2,
0,
1,
4,
2,
1,
1,
1,
1,
0,
1,
2,
0,
1,
2,
0,
0,
0,
0,
0,
1,
2,
0,
0,
0,
0,
0,
2,
0,
0,
0,
0,
0,
0,
1,
0,
0,
0,
0,
0,
0,
0,
0,
0,
1,
0,
0,
0,
0,
0,
1,
0,
0,
0,
0,
0,
0,
1,
0,
1,
0,
0,
0,
0,
0,
0,
0,
0,
0,
0,
0,
0,
0,
0,
0,
0,
0,
0,
0,
0,
0,
0,
0,
0,
0,
0,
0,
0,
0,
0,
0,
0,
0,
#ENDOFDATA   :

File: NIST K493 std.msa
#FORMAT      : EMSA/MAS Spectral Data File
#VERSION     : 1.0
#TITLE       : 'NIST K493' standard for 'N132962' detector
#NPOINTS     : 4096
#NCOLUMNS    : 1
#XUNITS      : eV
#YUNITS      : counts
#DATATYPE    : Y
#SIGNALTYPE  : EDS
#XLABEL      : Energy (eV)
#YLABEL      : Counts
#XPERCHAN -eV: 9.99778
#OFFSET   -eV: 1.69135
#CHOFFSET    : 0
#OWNER       : Unknown
#ELEVANGLE   : 35
#BEAMKV   -kV: 20
#LIVETIME  -s: 1201.9
#REALTIME  -s: 1337.42
#PROBECUR -nA: 1.22616
##WORKING -mm: 15
##D2STDCMP   : NIST K493,(Li:0.0005),(B:0.0435),(O:20.6329),(Al:0.1058),(Si:13.0376),(Ti:0.1918),(Fe:0.2238),(Zr:0.3627),(Ce:0.5536),(Ta:0.7207),(Pb:64.1280)
##SIMILAR    : 1.0
#SPECTRUM    :
116,
2770,
59468,
37716,
140466,
42642,
36177,
38692,
42352,
47307,
51790,
58444,
266527,
197271,
46905,
51265,
99565,
765155,
128415,
63683,
27725,
30888,
38037,
28809,
26990,
27913,
26830,
26895,
25628,
26825,
26503,
25500,
31165,
25784,
26766,
27445,
23946,
23796,
23844,
22350,
22952,
21823,
21469,
21075,
20467,
20928,
23512,
19032,
18721,
18215,
18384,
17691,
16892,
17768,
16891,
16137,
15476,
15061,
16552,
14911,
14056,
13710,
13681,
13146,
12687,
14293,
14545,
12516,
11922,
11729,
10828,
10706,
10199,
10339,
15353,
59131,
32082,
9548,
8747,
8330,
8336,
8127,
7736,
7321,
6919,
6689,
6911,
7476,
6967,
9958,
26555,
11426,
6243,
6047,
4899,
4548,
4320,
4096,
4108,
3829,
3655,
3556,
3434,
3228,
3123,
4377,
3824,
2869,
2943,
2691,
2270,
2155,
1997,
1981,
1823,
1716,
1717,
1500,
1438,
1398,
1275,
1197,
1241,
1087,
1008,
965,
880,
894,
762,
662,
611,
558,
498,
446,
435,
377,
325,
284,
244,
181,
133,
99,
60,
30,
19,
24,
24,
10,
15,
21,
27,
19,
18,
19,
13,
14,
11,
8,
10,
11,
7,
13,
5,
9,
6,
10,
14,
7,
10,
6,
4,
7,
4,
3,
7,
9,
10,
5,
7,
3,
2,
2,
6,
7,
3,
4,
3,
5,
5,
4,
4,
1,
3,
2,
4,
4,
2,
2,
2,
1,
3,
2,
1,
2,
2,
2,
1,
1,
1,
3,
2,
3,
2,
0,
0,
1,
2,
0,
0,
1,
1,
0,
0,
0,
0,
1,
0,
0,
0,
0,
0,
0,
0,
0,
1,
0,
0,
0,
0,
0,
0,
0,
0,
0,
0,
0,
0,
0,
0,
0,
0,
0,
0,
0,
1,
0,
0,
0,
0,
0,
0,
0,
0,
0,
0,
0,
0,
0,
0,
0,
0,
0,
0,
0,
0,
0,
0,
0,
0,
0,
0,
0,
0,
0,
0,
0,
0,
0,
0,
0,
0,
0,
0,
0,
#ENDOFDATA   :

File: NIST K873 std.msa
#FORMAT      : EMSA/MAS Spectral Data File
#VERSION     : 1.0
#TITLE       : 'NIST K873' standard for 'N132962' detector
#NPOINTS     : 4096
#NCOLUMNS    : 1
#XUNITS      : eV
#YUNITS      : counts
#DATATYPE    : Y
#SIGNALTYPE  : EDS
#XLABEL      : Energy (eV)
#YLABEL      : Counts
#XPERCHAN -eV: 9.99778
#OFFSET   -eV: 1.69135
#CHOFFSET    : 0
#OWNER       : Unknown
#ELEVANGLE   : 35
#BEAMKV   -kV: 20
#LIVETIME  -s: 1200.92
#REALTIME  -s: 1312.52
#PROBECUR -nA: 1.22616
##WORKING -mm: 15
##D2STDCMP   : NIST K873,(O:25.4593),(Al:0.2646),(Si:11.4529),(Mn:0.3160),(Ge:17.0041),(Ba:21.9429),(Ce:0.4070),(Ta:0.4095),(Pb:22.7437)
##SIMILAR    : 1.0
#SPECTRUM    :
113,
2048,
46712,
43831,
222955,
34788,
33173,
41923,
75680,
108176,
31980,
38123,
171293,
108513,
30844,
31762,
49070,
247211,
58143,
42692,
27640,
28461,
31499,
26590,
26137,
25865,
24717,
24680,
28838,
24859,
23910,
34254,
193628,
24790,
55250,
71593,
26078,
47349,
20337,
23138,
23606,
20586,
22658,
17110,
15491,
15784,
16632,
14596,
14150,
13800,
13775,
13265,
13030,
13414,
12568,
12112,
11597,
11594,
12519,
11025,
10582,
10156,
10054,
9731,
9673,
9724,
9875,
9134,
8801,
9369,
41015,
40691,
8507,
7495,
9001,
23338,
14241,
7114,
12040,
9770,
5888,
5745,
5441,
5238,
5154,
4795,
4815,
4798,
4769,
5553,
10533,
5717,
4066,
3881,
3444,
3118,
3203,
2938,
2823,
2724,
2613,
2545,
2452,
2280,
2231,
2594,
2303,
1930,
1880,
1730,
1611,
1513,
1430,
1331,
1295,
1251,
1118,
1051,
1047,
956,
877,
826,
794,
706,
665,
617,
586,
525,
518,
459,
392,
361,
331,
307,
254,
227,
198,
172,
166,
78,
83,
73,
32,
14,
9,
8,
12,
15,
13,
10,
15,
6,
8,
13,
6,
5,
8,
10,
8,
7,
6,
3,
8,
7,
1,
6,
4,
4,
3,
2,
3,
2,
2,
2,
4,
1,
3,
3,
4,
1,
5,
2,
2,
3,
1,
4,
3,
1,
1,
2,
0,
2,
2,
1,
0,
1,
1,
0,
1,
3,
1,
0,
0,
0,
1,
1,
1,
2,
0,
0,
0,
1,
0,
1,
0,
0,
0,
0,
0,
1,
0,
1,
0,
0,
0,
0,
0,
0,
0,
0,
0,
0,
0,
0,
0,
0,
0,
0,
0,
0,
0,
0,
0,
0,
0,
0,
0,
0,
0,
0,
0,
0,
0,
0,
0,
0,
0,
0,
0,
0,
0,
0,
0,
0,
0,
0,
0,
0,
0,
0,
0,
0,
0,
0,
0,
0,
0,
0,
0,
0,
0,
0,
0,
0,
0,
0,
0,
0,
0,
0,
0,
0,
0,
0,
#ENDOFDATA   :

File: NIST K919 std.msa
#FORMAT      : EMSA/MAS Spectral Data File
#VERSION     : 1.0
#TITLE       : 'NIST K919' standard for 'N132962' detector
#NPOINTS     : 4096
#NCOLUMNS    : 1
#XUNITS      : eV
#YUNITS      : counts
#DATATYPE    : Y
#SIGNALTYPE  : EDS
#XLABEL      : Energy (eV)
#YLABEL      : Counts
#XPERCHAN -eV: 9.99778
#OFFSET   -eV: 1.69135
#CHOFFSET    : 0
#OWNER       : Unknown
#ELEVANGLE   : 35
#BEAMKV   -kV: 20
#LIVETIME  -s: 1199.63
#REALTIME  -s: 1306.64
#PROBECUR -nA: 1.22377
##WORKING -mm: 15
##D2STDCMP   : NIST K919,(O:31.8587),(Si:20.1010),(Cr:0.6842),(Mn:1.8958),(Fe:2.0983),(Co:2.1318),(Ni:2.3575),(Cu:2.3965),(Ba:34.0339),(Ce:2.4422)
##SIMILAR    : 1.0
#SPECTRUM    :
125,
1683,
40626,
55529,
365098,
52579,
52750,
38094,
23398,
24403,
27248,
31773,
260981,
132879,
23600,
24213,
27231,
25156,
25061,
25761,
25137,
24798,
24933,
23445,
22838,
23005,
22607,
21168,
27924,
22096,
20280,
37567,
287639,
22438,
74852,
101774,
25742,
60714,
23985,
29419,
24686,
18710,
39748,
16366,
12190,
17789,
31937,
12246,
10654,
21780,
20550,
10995,
9902,
23173,
16584,
10567,
8812,
17986,
14903,
10425,
7956,
7352,
7367,
7964,
7928,
6683,
6477,
6375,
6145,
5918,
5814,
5615,
5549,
5322,
5077,
4965,
4808,
4705,
4547,
4364,
4183,
4053,
4014,
3770,
3572,
3503,
3410,
3162,
3246,
2982,
2914,
2793,
2689,
2521,
2359,
2272,
2218,
2144,
2022,
1955,
1825,
1762,
1701,
1557,
1551,
1442,
1433,
1282,
1245,
1140,
1083,
1040,
963,
922,
921,
878,
794,
743,
666,
684,
610,
546,
518,
483,
432,
413,
392,
374,
314,
289,
270,
237,
203,
192,
181,
163,
142,
119,
83,
64,
50,
23,
13,
16,
9,
8,
7,
6,
7,
7,
7,
3,
6,
4,
4,
6,
5,
1,
2,
4,
1,
2,
5,
0,
4,
3,
3,
1,
4,
0,
0,
1,
0,
1,
1,
1,
2,
2,
1,
2,
0,
1,
3,
2,
1,
0,
3,
0,
1,
0,
0,
2,
3,
0,
0,
2,
0,
0,
0,
1,
0,
2,
0,
0,
0,
0,
0,
0,
1,
0,
1,
0,
0,
0,
0,
0,
0,
0,
0,
0,
0,
0,
0,
0,
0,
0,
0,
0,
0,
0,
0,
0,
0,
0,
0,
0,
0,
0,
0,
1,
0,
0,
0,
0,
0,
0,
0,
0,
0,
0,
0,
0,
0,
0,
0,
0,
0,
0,
0,
0,
0,
0,
0,
0,
0,
0,
0,
0,
0,
0,
0,
0,
0,
0,
0,
0,
0,
0,
0,
0,
0,
0,
0,
0,
0,
0,
0,
0,
0,
0,
0,
0,
0,
0,
#ENDOFDATA   :

File: NIST K979 std.msa
#FORMAT      : EMSA/MAS Spectral Data File
#VERSION     : 1.0
#TITLE       : 'NIST K979' standard for 'N132962' detector
#NPOINTS     : 4096
#NCOLUMNS    : 1
#XUNITS      : eV
#YUNITS      : counts
#DATATYPE    : Y
#SIGNALTYPE  : EDS
#XLABEL      : Energy (eV)
#YLABEL      : Counts
#XPERCHAN -eV: 9.99778
#OFFSET   -eV: 1.69135
#CHOFFSET    : 0
#OWNER       : Unknown
#ELEVANGLE   : 35
#BEAMKV   -kV: 20
#LIVETIME  -s: 1200.6
#REALTIME  -s: 1297.16
#PROBECUR -nA: 1.22416
##WORKING -mm: 15
##D2STDCMP   : NIST K979,(Li:1.0452),(O:40.5783),(Al:8.9228),(Si:21.0172),(K:1.8678),(Ca:6.7467),(Ti:1.3489),(Sr:10.0541),(Nb:1.5729),(Sb:0.8431),(Cs:2.1222),(Sm:1.9404),(Dy:1.9605)
##SIMILAR    : 1.0
#SPECTRUM    :
124,
1344,
33006,
34817,
233899,
16739,
21152,
25949,
31966,
40028,
60794,
182975,
315962,
363470,
31796,
23675,
32177,
19155,
17771,
17799,
17363,
17389,
16830,
24466,
48462,
19865,
121123,
47284,
20689,
28848,
17344,
22465,
35580,
22528,
13099,
16471,
11922,
10717,
11094,
10487,
17832,
11125,
8916,
8707,
11658,
10438,
14368,
11750,
7478,
7232,
7074,
8376,
9905,
7345,
7212,
6676,
5815,
5753,
5447,
5274,
5496,
4829,
4964,
4564,
4553,
4394,
4217,
4087,
3866,
3877,
3719,
3512,
3588,
3429,
3251,
3204,
3026,
2792,
2762,
2585,
2666,
2392,
2341,
2272,
2228,
2088,
1975,
1938,
1880,
1763,
1677,
1650,
1545,
1492,
1449,
1356,
1297,
1177,
1263,
1133,
1917,
3450,
1527,
944,
836,
861,
797,
713,
760,
698,
607,
642,
626,
796,
577,
481,
419,
423,
348,
361,
327,
337,
278,
253,
262,
219,
209,
177,
163,
161,
123,
100,
106,
104,
114,
69,
80,
48,
41,
27,
22,
15,
9,
2,
1,
3,
6,
2,
1,
0,
0,
2,
3,
4,
1,
0,
4,
1,
1,
0,
0,
2,
0,
0,
1,
0,
0,
1,
0,
0,
1,
0,
0,
1,
1,
0,
1,
0,
0,
1,
1,
0,
0,
0,
1,
0,
0,
0,
0,
1,
0,
1,
0,
0,
0,
0,
0,
0,
0,
0,
0,
0,
0,
0,
0,
0,
0,
0,
0,
0,
0,
0,
0,
0,
0,
0,
0,
0,
0,
1,
0,
0,
0,
0,
0,
0,
0,
0,
0,
0,
0,
0,
0,
0,
0,
0,
0,
0,
0,
0,
0,
0,
0,
0,
0,
0,
0,
0,
0,
0,
0,
0,
0,
0,
0,
0,
0,
0,
0,
0,
0,
0,
0,
0,
0,
0,
0,
0,
0,
0,
0,
0,
0,
0,
0,
0,
0,
0,
0,
0,
0,
0,
0,
0,
0,
0,
0,
0,
0,
0,
0,
0,
0,
0,
#ENDOFDATA   :

File: NIST K1010 std.msa
#FORMAT      : EMSA/MAS Spectral Data File
#VERSION     : 1.0
#TITLE       : ''NIST K1010'' standard for 'N132962' detector
#NPOINTS     : 4096
#NCOLUMNS    : 1
#XUNITS      : eV
#YUNITS      : counts
#DATATYPE    : Y
#SIGNALTYPE  : EDS
#XLABEL      : Energy (eV)
#YLABEL      : Counts
#XPERCHAN -eV: 9.99778
#OFFSET   -eV: 1.69135
#CHOFFSET    : 0
#DATE        : 18-Sep-2025
#TIME        : 10:11:00
#OWNER       : Unknown
#ELEVANGLE   : 35
#BEAMKV   -kV: 20
#LIVETIME  -s: 1200.78
#REALTIME  -s: 1299.72
#PROBECUR -nA: 1.21237
##WORKING -mm: 15
##D2STDCMP   : 'NIST K1010',(O:38.9610),(Al:8.9228),(Si:21.0172),(K:1.8678),(Ca:6.7467),(Ge:1.5616),(Rb:2.0574),(Sr:10.0541),(Te:0.8954),(Cs:2.1222),(La:1.9185),(Eu:1.9432),(Gd:1.9520)
##SIMILAR    : 1.0
#SPECTRUM    :
126,
1257,
35502,
32863,
235558,
18153,
25363,
26180,
43948,
41401,
59787,
180294,
349899,
360511,
31129,
17953,
20651,
18186,
18173,
18360,
18033,
18637,
17745,
24925,
49735,
20018,
118275,
51135,
19089,
31347,
17919,
23219,
14576,
31027,
14774,
14388,
17747,
12932,
12849,
11933,
10311,
12501,
17861,
17608,
10522,
9056,
13683,
9637,
12395,
9937,
7894,
8278,
7006,
7581,
6816,
6794,
6557,
6003,
5936,
5686,
5479,
5247,
4965,
4814,
4807,
4717,
4473,
4358,
4215,
4089,
6779,
6447,
3678,
3665,
3454,
3298,
3218,
3004,
3498,
3153,
2744,
2687,
2466,
2478,
2415,
2258,
2168,
2112,
2008,
1943,
1902,
1808,
1687,
1626,
1558,
2161,
1960,
1435,
1291,
1205,
1978,
3436,
1647,
969,
982,
887,
911,
973,
788,
683,
691,
664,
717,
871,
594,
531,
492,
391,
395,
367,
375,
302,
278,
289,
252,
245,
223,
197,
178,
155,
153,
129,
127,
109,
102,
78,
60,
51,
57,
36,
33,
13,
8,
5,
3,
1,
1,
4,
3,
2,
2,
0,
3,
2,
1,
2,
2,
4,
2,
1,
0,
3,
0,
2,
0,
1,
1,
0,
0,
1,
0,
0,
2,
0,
0,
0,
1,
1,
0,
0,
0,
0,
0,
0,
0,
0,
0,
0,
0,
0,
1,
1,
0,
1,
0,
0,
0,
0,
0,
0,
0,
1,
0,
0,
0,
0,
0,
0,
1,
1,
0,
0,
0,
0,
0,
0,
0,
0,
0,
0,
0,
0,
0,
0,
0,
0,
0,
0,
0,
0,
0,
0,
0,
0,
0,
0,
0,
0,
0,
0,
0,
0,
0,
0,
0,
0,
0,
0,
0,
0,
0,
0,
0,
0,
0,
0,
0,
0,
0,
0,
0,
0,
0,
0,
0,
0,
0,
0,
0,
0,
0,
0,
0,
0,
0,
0,
0,
0,
0,
0,
0,
0,
0,
0,
0,
0,
0,
0,
0,
0,
0,
0,
0,
0,
#ENDOFDATA   :

File: NIST K1070 std.msa
#FORMAT      : EMSA/MAS Spectral Data File
#VERSION     : 1.0
#TITLE       : 'NIST K1070' standard for 'N132962' detector
#NPOINTS     : 4096
#NCOLUMNS    : 1
#XUNITS      : eV
#YUNITS      : counts
#DATATYPE    : Y
#SIGNALTYPE  : EDS
#XLABEL      : Energy (eV)
#YLABEL      : Counts
#XPERCHAN -eV: 9.99778
#OFFSET   -eV: 1.69135
#CHOFFSET    : 0
#OWNER       : Unknown
#ELEVANGLE   : 35
#BEAMKV   -kV: 20
#LIVETIME  -s: 1200.81
#REALTIME  -s: 1299.91
#PROBECUR -nA: 1.22416
##WORKING -mm: 15
##D2STDCMP   : NIST K1070,(O:34.3086),(Mg:7.5385),(Si:18.6986),(Ca:8.9337),(Zn:10.0421),(Ba:11.1954),(Pb:9.2832)
##SIMILAR    : 1.1
#SPECTRUM    :
108,
1252,
47069,
35145,
234977,
22626,
29166,
137882,
30565,
263687,
26446,
31118,
260502,
136368,
24993,
23073,
31152,
108167,
32754,
27328,
21244,
21372,
22648,
20046,
19436,
20739,
148093,
59252,
25146,
36830,
16475,
20668,
97852,
15989,
30157,
37550,
16221,
25953,
12941,
14891,
14305,
13034,
11989,
10818,
10396,
10341,
10655,
9657,
9374,
9065,
8956,
8630,
8388,
8392,
8049,
7509,
7290,
7342,
7054,
6904,
6840,
27598,
41939,
6939,
5937,
5993,
6127,
5638,
10649,
7573,
4943,
4684,
4462,
4469,
5138,
9765,
6672,
3900,
3773,
3703,
3540,
3416,
3155,
3073,
3056,
2949,
2841,
2730,
2552,
2915,
4766,
2984,
2289,
2173,
1940,
1810,
1713,
1721,
1703,
1483,
1529,
1397,
1365,
1244,
1173,
1285,
1234,
1105,
1031,
959,
814,
840,
814,
707,
751,
637,
596,
547,
533,
467,
497,
419,
407,
367,
334,
318,
299,
256,
274,
244,
212,
176,
146,
158,
146,
102,
92,
78,
66,
45,
48,
30,
17,
9,
4,
4,
3,
6,
4,
4,
6,
7,
3,
6,
2,
3,
3,
4,
0,
5,
0,
2,
1,
1,
1,
0,
0,
1,
1,
0,
4,
0,
0,
1,
0,
0,
2,
0,
2,
0,
0,
0,
0,
1,
0,
2,
1,
1,
0,
1,
2,
0,
0,
0,
0,
2,
0,
0,
1,
0,
0,
0,
1,
1,
0,
0,
0,
0,
1,
0,
0,
0,
0,
0,
0,
0,
0,
0,
0,
0,
0,
0,
0,
0,
0,
0,
0,
0,
0,
0,
0,
0,
0,
0,
0,
0,
0,
0,
0,
0,
0,
0,
0,
0,
0,
0,
0,
0,
0,
0,
0,
0,
0,
0,
0,
0,
0,
0,
0,
0,
0,
0,
0,
0,
0,
0,
0,
0,
0,
0,
0,
0,
0,
0,
0,
0,
0,
0,
0,
0,
0,
0,
0,
0,
0,
0,
0,
0,
0,
0,
0,
0,
0,
0,
#ENDOFDATA   :

File: NIST K1132 std.msa
#FORMAT      : EMSA/MAS Spectral Data File
#VERSION     : 1.0
#TITLE       : 'NIST K1132' standard for 'N132962' detector
#NPOINTS     : 4096
#NCOLUMNS    : 1
#XUNITS      : eV
#YUNITS      : counts
#DATATYPE    : Y
#SIGNALTYPE  : EDS
#XLABEL      : Energy (eV)
#YLABEL      : Counts
#XPERCHAN -eV: 9.99778
#OFFSET   -eV: 1.69135
#CHOFFSET    : 0
#OWNER       : Unknown
#ELEVANGLE   : 35
#BEAMKV   -kV: 20
#LIVETIME  -s: 1200.63
#REALTIME  -s: 1293.91
#PROBECUR -nA: 1.22427
##WORKING -mm: 15
##D2STDCMP   : NIST K1132,(Li:2.3226),(O:41.3394),(Al:7.9384),(Si:21.3865),(Ca:10.7204),(Cr:0.5132),(Ni:1.1788),(Mo:1.6663),(Ba:13.4344)
##SIMILAR    : 1.1
#SPECTRUM    :
110,
1203,
39367,
35686,
277587,
17439,
31031,
23781,
22221,
25232,
48860,
143138,
291447,
141486,
22352,
19032,
31661,
30608,
20556,
18987,
18348,
17899,
17390,
17779,
16325,
18361,
171522,
64158,
24174,
37581,
13568,
18736,
108184,
13120,
29494,
38047,
13986,
25383,
12281,
17471,
12359,
10616,
10079,
8889,
8073,
8014,
8028,
7474,
7270,
6936,
6754,
6638,
6457,
12838,
8940,
5770,
5645,
5555,
5344,
6332,
5025,
4884,
4659,
4551,
4480,
4247,
4006,
3933,
3909,
3784,
3662,
3580,
3470,
3288,
3246,
2996,
2919,
2749,
2826,
2692,
2609,
2462,
2451,
2256,
2071,
2093,
2003,
1950,
1854,
1784,
1672,
1675,
1612,
1491,
1354,
1382,
1284,
1185,
1191,
1141,
1104,
972,
966,
876,
841,
790,
782,
742,
713,
665,
625,
546,
581,
572,
435,
447,
440,
383,
411,
335,
304,
316,
296,
273,
252,
235,
215,
189,
168,
149,
153,
149,
102,
106,
80,
75,
63,
64,
38,
33,
20,
21,
9,
4,
6,
3,
3,
1,
3,
4,
1,
0,
1,
0,
0,
1,
2,
1,
0,
0,
1,
0,
0,
0,
0,
0,
2,
0,
0,
0,
0,
0,
0,
0,
2,
0,
0,
0,
1,
0,
0,
0,
0,
1,
0,
0,
1,
0,
0,
0,
0,
0,
0,
0,
0,
0,
0,
0,
0,
1,
1,
0,
0,
0,
0,
0,
0,
0,
0,
0,
0,
0,
0,
0,
0,
0,
0,
0,
0,
1,
0,
0,
0,
0,
0,
0,
0,
0,
0,
0,
0,
0,
0,
0,
0,
0,
0,
0,
0,
0,
0,
0,
0,
0,
0,
0,
0,
0,
0,
0,
0,
0,
0,
0,
0,
0,
0,
0,
0,
0,
0,
0,
0,
0,
0,
0,
0,
0,
0,
0,
0,
0,
0,
0,
0,
0,
0,
0,
0,
0,
0,
0,
0,
0,
0,
0,
0,
0,
0,
0,
0,
0,
0,
0,
#ENDOFDATA   :