Folder: spex_quant/N132962/Quantification/20 keV/Glass Mount IIIB

Note: README.md
# spex_quant
Spectral data for evaluating `spex`.  It contains both standard spectra and sample spectra.

 * N132962 represents the TESCAN MIRA4 with 4 silicon nitride window silicon drift detectors in 217 D113 at NIST Gaitherburg.
  * Reference set: "N132962 20 keV" built using 'n132962_20keV.bat' for 20 keV analyses

File: GM IIIA K1010[0][4].msa
#FORMAT      : EMSA/MAS Spectral Data File
#VERSION     : 1.0
#TITLE       : K1010 IIIA K1010[0][all]
#DATE        : 18-SEP-2025
#TIME        : 10:06
#OWNER       : Unknown
#NPOINTS     : 4096
#NCOLUMNS    : 1
#XUNITS      : eV
#YUNITS      : counts
#DATATYPE    : Y
#XPERCHAN    : 9.99778
#OFFSET      : 1.69135
#BEAMKV      : 20
#SIGNALTYPE  : EDS
#ELEVANGLE   : 35
#AZIMANGLE   : 0
#LIVETIME    : 240.15
#REALTIME    : 259.946
#PROBECUR    : 1.21237
#TAUWIND     : 0
#TDEADLYR    : 0
#TACTLYR     : 0.045
#TALWIND     : 0.025
#CHOFFSET    : 0.0
#XLABEL      : Energy (eV)
#YLABEL      : Counts
#XPOSITION   : 10.53362
#YPOSITION   : 15.55879
#ZPOSITION   : 37.3512
#EDSDET      : SD
##SPECIMEN   : K1010 IIIA K1010[0][all]
##DET_HASH   : 12273538-fd48-a23f-0a19-f1e6fa85caef
##CALIB_HASH : 6abaa72c-aa41-8738-0be9-f592914732f3
##WORKING    : 15.0 mm
##DET_NAME   : EDAX All
##DET_MODE   : MediumLE
#SPECTRUM    :
30,
263,
7139,
6477,
46556,
3665,
5063,
5242,
8764,
8150,
11952,
35982,
70036,
71937,
6306,
3527,
4251,
3603,
3626,
3599,
3514,
3786,
3572,
4931,
9842,
4077,
23792,
10125,
3863,
6168,
3578,
4630,
2869,
6177,
3085,
2907,
3532,
2544,
2629,
2346,
2062,
2454,
3698,
3453,
2044,
1800,
2855,
1946,
2519,
1945,
1555,
1653,
1439,
1532,
1377,
1370,
1314,
1106,
1249,
1172,
1064,
1065,
1003,
917,
926,
954,
890,
869,
805,
866,
1318,
1261,
740,
716,
703,
668,
635,
623,
689,
668,
538,
575,
503,
502,
472,
412,
390,
448,
408,
396,
405,
371,
343,
321,
326,
429,
389,
299,
241,
231,
367,
700,
327,
195,
187,
188,
175,
192,
154,
136,
133,
129,
137,
197,
118,
113,
99,
65,
73,
66,
71,
60,
62,
59,
50,
51,
46,
35,
33,
31,
34,
30,
21,
23,
16,
12,
14,
14,
4,
9,
10,
1,
0,
1,
1,
0,
0,
0,
1,
0,
1,
0,
1,
1,
0,
0,
0,
2,
0,
0,
0,
1,
0,
1,
0,
0,
1,
0,
0,
1,
0,
0,
1,
0,
0,
0,
0,
0,
0,
0,
0,
0,
0,
0,
0,
0,
0,
0,
0,
0,
0,
0,
0,
0,
0,
0,
0,
0,
0,
0,
0,
0,
0,
0,
0,
0,
0,
0,
1,
0,
0,
0,
0,
0,
0,
0,
0,
0,
0,
0,
0,
0,
0,
0,
0,
0,
0,
0,
0,
0,
0,
0,
0,
0,
0,
0,
0,
0,
0,
0,
0,
0,
0,
0,
0,
0,
0,
0,
0,
0,
0,
0,
0,
0,
0,
0,
0,
0,
0,
0,
0,
0,
0,
0,
0,
0,
0,
0,
0,
0,
0,
0,
0,
0,
0,
0,
0,
0,
0,
0,
0,
0,
0,
0,
0,
0,
0,
0,
0,
0,
0,
0,
0,
0,
#ENDOFDATA   :

File: GM IIIA K1010[2][4].msa
#FORMAT      : EMSA/MAS Spectral Data File
#VERSION     : 1.0
#TITLE       : K1010 IIIA K1010[2][all]
#DATE        : 18-SEP-2025
#TIME        : 10:09
#OWNER       : Unknown
#NPOINTS     : 4096
#NCOLUMNS    : 1
#XUNITS      : eV
#YUNITS      : counts
#DATATYPE    : Y
#XPERCHAN    : 9.99778
#OFFSET      : 1.69135
#BEAMKV      : 20
#SIGNALTYPE  : EDS
#ELEVANGLE   : 35
#AZIMANGLE   : 0
#LIVETIME    : 240.158
#REALTIME    : 259.938
#PROBECUR    : 1.21237
#TAUWIND     : 0
#TDEADLYR    : 0
#TACTLYR     : 0.045
#TALWIND     : 0.025
#CHOFFSET    : 0.0
#XLABEL      : Energy (eV)
#YLABEL      : Counts
#XPOSITION   : 10.51443
#YPOSITION   : 15.55101
#ZPOSITION   : 37.3512
#EDSDET      : SD
##SPECIMEN   : K1010 IIIA K1010[2][all]
##DET_HASH   : 12273538-fd48-a23f-0a19-f1e6fa85caef
##CALIB_HASH : 6abaa72c-aa41-8738-0be9-f592914732f3
##WORKING    : 15.0 mm
##DET_NAME   : EDAX All
##DET_MODE   : MediumLE
#SPECTRUM    :
23,
254,
7056,
6629,
47287,
3608,
4964,
5319,
8786,
8184,
11815,
35944,
70147,
72564,
6242,
3708,
4111,
3590,
3608,
3703,
3561,
3649,
3551,
5037,
9872,
3917,
23812,
10271,
3834,
6309,
3624,
4683,
2976,
6191,
2851,
2899,
3622,
2615,
2585,
2383,
2053,
2556,
3449,
3585,
2101,
1867,
2666,
2061,
2407,
2003,
1588,
1620,
1447,
1511,
1409,
1344,
1294,
1197,
1198,
1148,
1078,
1049,
1017,
956,
976,
955,
913,
859,
875,
851,
1379,
1307,
692,
766,
642,
640,
654,
602,
675,
589,
592,
542,
505,
525,
470,
441,
400,
421,
368,
386,
394,
380,
303,
322,
336,
422,
425,
309,
269,
223,
387,
707,
361,
186,
186,
153,
178,
189,
161,
142,
138,
128,
153,
173,
106,
96,
93,
89,
76,
79,
78,
68,
56,
75,
59,
46,
37,
41,
37,
40,
33,
21,
31,
20,
20,
17,
9,
7,
13,
8,
5,
6,
3,
1,
0,
0,
0,
0,
0,
0,
0,
0,
0,
0,
0,
2,
0,
0,
1,
0,
0,
0,
0,
0,
0,
0,
0,
0,
0,
0,
0,
0,
0,
0,
0,
0,
0,
1,
0,
0,
0,
0,
0,
0,
0,
0,
0,
0,
0,
0,
0,
0,
0,
0,
0,
0,
0,
0,
0,
0,
0,
0,
0,
0,
0,
0,
0,
0,
0,
0,
0,
0,
0,
0,
0,
0,
0,
0,
0,
0,
0,
0,
0,
0,
0,
0,
0,
0,
0,
0,
0,
0,
0,
0,
0,
0,
0,
0,
0,
0,
0,
0,
0,
0,
0,
0,
0,
0,
0,
0,
0,
0,
0,
0,
0,
0,
0,
0,
0,
0,
0,
0,
0,
0,
0,
0,
0,
0,
0,
0,
0,
0,
0,
0,
0,
0,
0,
0,
0,
0,
0,
0,
0,
0,
0,
0,
0,
0,
0,
0,
0,
0,
0,
0,
#ENDOFDATA   :

File: GM IIIA K1010[3][4].msa
#FORMAT      : EMSA/MAS Spectral Data File
#VERSION     : 1.0
#TITLE       : K1010 IIIA K1010[3][all]
#DATE        : 18-SEP-2025
#TIME        : 10:10
#OWNER       : Unknown
#NPOINTS     : 4096
#NCOLUMNS    : 1
#XUNITS      : eV
#YUNITS      : counts
#DATATYPE    : Y
#XPERCHAN    : 9.99778
#OFFSET      : 1.69135
#BEAMKV      : 20
#SIGNALTYPE  : EDS
#ELEVANGLE   : 35
#AZIMANGLE   : 0
#LIVETIME    : 240.161
#REALTIME    : 259.941
#PROBECUR    : 1.21237
#TAUWIND     : 0
#TDEADLYR    : 0
#TACTLYR     : 0.045
#TALWIND     : 0.025
#CHOFFSET    : 0.0
#XLABEL      : Energy (eV)
#YLABEL      : Counts
#XPOSITION   : 10.49795
#YPOSITION   : 15.5554
#ZPOSITION   : 37.3512
#EDSDET      : SD
##SPECIMEN   : K1010 IIIA K1010[3][all]
##DET_HASH   : 12273538-fd48-a23f-0a19-f1e6fa85caef
##CALIB_HASH : 6abaa72c-aa41-8738-0be9-f592914732f3
##WORKING    : 15.0 mm
##DET_NAME   : EDAX All
##DET_MODE   : MediumLE
#SPECTRUM    :
24,
280,
7108,
6613,
46755,
3604,
4905,
5275,
8810,
8344,
11896,
36024,
69709,
71752,
6253,
3583,
4179,
3723,
3654,
3731,
3691,
3706,
3555,
4879,
9955,
4069,
23490,
10090,
3714,
6225,
3646,
4553,
2855,
6140,
3004,
2793,
3551,
2546,
2596,
2453,
2116,
2519,
3604,
3465,
2188,
1814,
2690,
1890,
2510,
2059,
1651,
1688,
1381,
1518,
1339,
1335,
1349,
1207,
1179,
1090,
1108,
1010,
978,
1006,
965,
947,
912,
918,
839,
828,
1385,
1249,
733,
715,
684,
690,
670,
548,
712,
639,
517,
495,
486,
504,
517,
469,
473,
403,
378,
398,
372,
350,
336,
303,
284,
434,
366,
257,
269,
256,
405,
694,
327,
185,
182,
197,
183,
204,
168,
125,
146,
124,
153,
170,
115,
105,
102,
83,
72,
73,
74,
57,
62,
54,
51,
39,
39,
42,
39,
25,
39,
30,
22,
19,
17,
15,
11,
9,
15,
8,
7,
4,
3,
0,
1,
0,
0,
3,
0,
1,
0,
0,
1,
0,
0,
0,
0,
1,
0,
1,
0,
1,
0,
0,
0,
0,
0,
0,
0,
0,
0,
0,
1,
0,
0,
0,
0,
0,
0,
0,
0,
0,
0,
0,
0,
0,
0,
0,
0,
0,
1,
0,
0,
1,
0,
0,
0,
0,
0,
0,
0,
1,
0,
0,
0,
0,
0,
0,
0,
0,
0,
0,
0,
0,
0,
0,
0,
0,
0,
0,
0,
0,
0,
0,
0,
0,
0,
0,
0,
0,
0,
0,
0,
0,
0,
0,
0,
0,
0,
0,
0,
0,
0,
0,
0,
0,
0,
0,
0,
0,
0,
0,
0,
0,
0,
0,
0,
0,
0,
0,
0,
0,
0,
0,
0,
0,
0,
0,
0,
0,
0,
0,
0,
0,
0,
0,
0,
0,
0,
0,
0,
0,
0,
0,
0,
0,
0,
0,
0,
0,
0,
0,
0,
0,
#ENDOFDATA   :

File: GM IIIA K1010[4][4].msa
#FORMAT      : EMSA/MAS Spectral Data File
#VERSION     : 1.0
#TITLE       : K1010 IIIA K1010[4][all]
#DATE        : 18-SEP-2025
#TIME        : 10:11
#OWNER       : Unknown
#NPOINTS     : 4096
#NCOLUMNS    : 1
#XUNITS      : eV
#YUNITS      : counts
#DATATYPE    : Y
#XPERCHAN    : 9.99778
#OFFSET      : 1.69135
#BEAMKV      : 20
#SIGNALTYPE  : EDS
#ELEVANGLE   : 35
#AZIMANGLE   : 0
#LIVETIME    : 240.21
#REALTIME    : 260.005
#PROBECUR    : 1.21237
#TAUWIND     : 0
#TDEADLYR    : 0
#TACTLYR     : 0.045
#TALWIND     : 0.025
#CHOFFSET    : 0.0
#XLABEL      : Energy (eV)
#YLABEL      : Counts
#XPOSITION   : 10.46265
#YPOSITION   : 15.57501
#ZPOSITION   : 37.3512
#EDSDET      : SD
##SPECIMEN   : K1010 IIIA K1010[4][all]
##DET_HASH   : 12273538-fd48-a23f-0a19-f1e6fa85caef
##CALIB_HASH : 6abaa72c-aa41-8738-0be9-f592914732f3
##WORKING    : 15.0 mm
##DET_NAME   : EDAX All
##DET_MODE   : MediumLE
#SPECTRUM    :
23,
239,
7134,
6517,
47322,
3592,
5300,
5169,
8848,
8384,
11930,
36205,
70052,
72380,
6083,
3577,
3967,
3588,
3567,
3707,
3607,
3747,
3560,
5118,
10060,
4041,
23489,
10361,
3839,
6322,
3443,
4690,
2910,
6229,
2928,
2897,
3558,
2597,
2539,
2432,
2041,
2452,
3543,
3549,
2075,
1842,
2741,
1873,
2488,
2023,
1564,
1656,
1397,
1484,
1335,
1368,
1311,
1257,
1201,
1150,
1113,
1068,
986,
1022,
959,
926,
892,
833,
853,
784,
1348,
1350,
786,
741,
679,
641,
654,
614,
690,
645,
551,
547,
471,
488,
479,
473,
451,
393,
432,
369,
384,
361,
373,
345,
285,
457,
374,
291,
270,
254,
408,
660,
321,
191,
196,
187,
185,
176,
145,
146,
140,
146,
137,
156,
138,
117,
113,
82,
83,
83,
74,
63,
43,
50,
44,
60,
49,
49,
33,
26,
25,
24,
26,
20,
22,
15,
16,
9,
11,
6,
7,
0,
1,
1,
0,
1,
1,
0,
0,
1,
1,
0,
0,
0,
1,
0,
1,
1,
0,
0,
0,
1,
0,
1,
0,
0,
0,
0,
0,
0,
0,
0,
0,
0,
0,
0,
1,
0,
0,
0,
0,
0,
0,
0,
0,
0,
0,
0,
0,
0,
0,
1,
0,
0,
0,
0,
0,
0,
0,
0,
0,
0,
0,
0,
0,
0,
0,
0,
0,
1,
0,
0,
0,
0,
0,
0,
0,
0,
0,
0,
0,
0,
0,
0,
0,
0,
0,
0,
0,
0,
0,
0,
0,
0,
0,
0,
0,
0,
0,
0,
0,
0,
0,
0,
0,
0,
0,
0,
0,
0,
0,
0,
0,
0,
0,
0,
0,
0,
0,
0,
0,
0,
0,
0,
0,
0,
0,
0,
0,
0,
0,
0,
0,
0,
0,
0,
0,
0,
0,
0,
0,
0,
0,
0,
0,
0,
0,
0,
0,
0,
0,
0,
0,
0,
#ENDOFDATA   :

File: GM IIIB K229[2][4].msa
#FORMAT      : EMSA/MAS Spectral Data File
#VERSION     : 1.0
#TITLE       : GM IIIB K229[2][all]
#DATE        : 10-SEP-2025
#TIME        : 19:19
#OWNER       : Unknown
#NPOINTS     : 4096
#NCOLUMNS    : 1
#XUNITS      : eV
#YUNITS      : counts
#DATATYPE    : Y
#XPERCHAN    : 9.99778
#OFFSET      : 1.69135
#BEAMKV      : 20
#SIGNALTYPE  : EDS
#ELEVANGLE   : 35
#AZIMANGLE   : 0
#LIVETIME    : 240.428
#REALTIME    : 267.554
#PROBECUR    : 1.21918
#TAUWIND     : 0
#TDEADLYR    : 0
#TACTLYR     : 0.045
#TALWIND     : 0.025
#CHOFFSET    : 0.0
#XLABEL      : Energy (eV)
#YLABEL      : Counts
#XPOSITION   : 6.56517
#YPOSITION   : -0.93368
#ZPOSITION   : 34.00159
#EDSDET      : SD
##SPECIMEN   : GM IIIB K229[2][all]
##D2STDCMP   : K229,(O:20.99),(Si:14.02),(Pb:64.98)
##DET_HASH   : 12273538-fd48-a23f-0a19-f1e6fa85caef
##CALIB_HASH : 6abaa72c-aa41-8738-0be9-f592914732f3
##WORKING    : 15.0 mm
##DET_NAME   : EDAX All
##DET_MODE   : MediumLE
#SPECTRUM    :
24,
545,
11887,
7475,
28507,
8104,
6964,
7564,
8379,
9536,
10311,
11287,
54297,
40160,
8996,
9301,
20175,
155930,
25999,
12663,
5546,
6053,
7677,
5651,
5225,
5482,
5432,
5243,
5103,
5165,
5255,
4976,
5376,
5069,
5184,
4984,
4701,
4641,
4597,
4496,
4458,
4260,
4232,
4089,
4033,
3978,
4215,
3795,
3711,
3586,
3604,
3548,
3393,
3519,
3282,
3128,
2983,
3034,
3000,
2886,
2776,
2678,
2608,
2492,
2489,
2839,
2849,
2427,
2306,
2175,
2193,
2202,
2095,
2036,
3145,
11960,
6520,
1842,
1706,
1687,
1581,
1615,
1534,
1388,
1416,
1312,
1387,
1462,
1375,
1997,
5290,
2251,
1290,
1277,
1005,
879,
821,
833,
799,
795,
756,
727,
685,
601,
624,
880,
765,
596,
610,
535,
449,
441,
431,
386,
357,
348,
361,
287,
342,
259,
284,
249,
207,
219,
186,
182,
173,
170,
163,
153,
126,
114,
97,
83,
93,
58,
50,
52,
54,
43,
29,
19,
8,
9,
2,
5,
5,
5,
2,
5,
2,
5,
3,
3,
5,
1,
1,
2,
3,
2,
0,
4,
2,
2,
1,
6,
3,
2,
1,
2,
1,
0,
1,
1,
0,
0,
0,
1,
2,
0,
1,
3,
2,
3,
0,
1,
0,
2,
0,
0,
0,
0,
0,
1,
1,
2,
3,
0,
0,
1,
1,
0,
1,
0,
0,
0,
0,
0,
0,
0,
0,
0,
0,
0,
0,
0,
0,
0,
0,
0,
0,
0,
0,
0,
0,
0,
0,
0,
0,
0,
0,
0,
0,
0,
0,
0,
0,
0,
0,
0,
0,
0,
0,
0,
0,
0,
0,
0,
0,
0,
0,
0,
0,
0,
0,
0,
0,
0,
0,
0,
0,
0,
0,
0,
0,
0,
0,
0,
0,
0,
0,
0,
0,
0,
0,
0,
0,
0,
0,
0,
0,
0,
0,
0,
0,
0,
0,
0,
0,
0,
0,
0,
0,
0,
#ENDOFDATA   :

File: GM IIIB K230[1][4].msa
#FORMAT      : EMSA/MAS Spectral Data File
#VERSION     : 1.0
#TITLE       : GM IIIB K230[1][all]
#DATE        : 10-SEP-2025
#TIME        : 19:12
#OWNER       : Unknown
#NPOINTS     : 4096
#NCOLUMNS    : 1
#XUNITS      : eV
#YUNITS      : counts
#DATATYPE    : Y
#XPERCHAN    : 9.99778
#OFFSET      : 1.69135
#BEAMKV      : 20
#SIGNALTYPE  : EDS
#ELEVANGLE   : 35
#AZIMANGLE   : 0
#LIVETIME    : 240.1645
#REALTIME    : 264.427
#PROBECUR    : 1.21918
#TAUWIND     : 0
#TDEADLYR    : 0
#TACTLYR     : 0.045
#TALWIND     : 0.025
#CHOFFSET    : 0.0
#XLABEL      : Energy (eV)
#YLABEL      : Counts
#XPOSITION   : 4.59057
#YPOSITION   : -1.16702
#ZPOSITION   : 34.0016
#EDSDET      : SD
##SPECIMEN   : GM IIIB K230[1][all]
##D2STDCMP   : K230,(O:24.49),(Al:2.65),(Si:14.02),(Zn:4.02),(Ba:8.96),(Ta:4.09),(Pb:41.77)
##DET_HASH   : 12273538-fd48-a23f-0a19-f1e6fa85caef
##CALIB_HASH : 6abaa72c-aa41-8738-0be9-f592914732f3
##WORKING    : 15.0 mm
##DET_NAME   : EDAX All
##DET_MODE   : MediumLE
#SPECTRUM    :
22,
413,
10080,
7946,
36025,
7044,
7029,
15944,
7431,
7992,
10183,
16723,
57088,
33963,
7596,
7335,
13926,
92019,
17194,
10212,
5152,
5625,
6623,
5426,
5052,
5147,
4918,
4939,
5109,
4894,
4841,
5468,
17758,
4851,
7041,
8076,
4610,
6241,
4083,
4321,
4256,
4038,
3697,
3554,
3384,
3523,
3592,
3226,
3157,
3128,
3038,
3025,
2970,
3001,
2872,
2659,
2674,
2754,
4525,
2869,
2441,
4232,
5498,
2290,
2080,
2422,
2636,
2617,
2570,
2499,
1819,
1764,
1687,
1711,
2351,
7568,
4405,
1577,
1539,
1374,
1390,
1363,
1256,
1170,
1141,
1105,
1141,
1126,
1102,
1464,
3439,
1623,
999,
915,
786,
730,
662,
661,
642,
566,
654,
606,
547,
501,
496,
672,
546,
477,
484,
418,
398,
346,
351,
310,
301,
294,
259,
248,
213,
227,
189,
187,
195,
155,
152,
130,
124,
116,
125,
98,
113,
91,
71,
68,
55,
57,
55,
32,
38,
13,
19,
11,
8,
0,
5,
4,
0,
1,
2,
2,
2,
0,
0,
2,
3,
3,
1,
0,
1,
4,
0,
1,
1,
2,
1,
1,
0,
0,
3,
1,
1,
1,
1,
0,
0,
2,
0,
0,
1,
1,
1,
1,
0,
0,
0,
0,
0,
1,
0,
1,
0,
0,
0,
0,
0,
0,
0,
0,
0,
0,
0,
0,
1,
0,
0,
0,
0,
0,
0,
0,
0,
1,
0,
0,
0,
0,
0,
0,
0,
0,
0,
0,
0,
0,
0,
1,
0,
0,
0,
0,
0,
0,
0,
0,
0,
0,
0,
0,
0,
0,
0,
0,
0,
0,
0,
0,
0,
0,
0,
0,
0,
0,
0,
0,
0,
0,
0,
0,
0,
0,
0,
0,
0,
0,
0,
0,
0,
0,
0,
0,
0,
0,
0,
0,
0,
0,
0,
0,
0,
0,
0,
0,
0,
0,
0,
0,
0,
0,
0,
0,
0,
0,
0,
0,
#ENDOFDATA   :

File: GM IIIB K230[4][4].msa
#FORMAT      : EMSA/MAS Spectral Data File
#VERSION     : 1.0
#TITLE       : GM IIIB K230[4][all]
#DATE        : 10-SEP-2025
#TIME        : 19:15
#OWNER       : Unknown
#NPOINTS     : 4096
#NCOLUMNS    : 1
#XUNITS      : eV
#YUNITS      : counts
#DATATYPE    : Y
#XPERCHAN    : 9.99778
#OFFSET      : 1.69135
#BEAMKV      : 20
#SIGNALTYPE  : EDS
#ELEVANGLE   : 35
#AZIMANGLE   : 0
#LIVETIME    : 240.199
#REALTIME    : 264.4877
#PROBECUR    : 1.21918
#TAUWIND     : 0
#TDEADLYR    : 0
#TACTLYR     : 0.045
#TALWIND     : 0.025
#CHOFFSET    : 0.0
#XLABEL      : Energy (eV)
#YLABEL      : Counts
#XPOSITION   : 4.52585
#YPOSITION   : -1.14287
#ZPOSITION   : 34.00159
#EDSDET      : SD
##SPECIMEN   : GM IIIB K230[4][all]
##D2STDCMP   : K230,(O:24.49),(Al:2.65),(Si:14.02),(Zn:4.02),(Ba:8.96),(Ta:4.09),(Pb:41.77)
##DET_HASH   : 12273538-fd48-a23f-0a19-f1e6fa85caef
##CALIB_HASH : 6abaa72c-aa41-8738-0be9-f592914732f3
##WORKING    : 15.0 mm
##DET_NAME   : EDAX All
##DET_MODE   : MediumLE
#SPECTRUM    :
27,
440,
10349,
7928,
36038,
6983,
6871,
15686,
7502,
7796,
10085,
17062,
57044,
33621,
7649,
7471,
13620,
92461,
17292,
10411,
5368,
5557,
6636,
5422,
5169,
5112,
4964,
4928,
5129,
5050,
4833,
5557,
17905,
4761,
7025,
8222,
4699,
6163,
3993,
4293,
4325,
4002,
3799,
3566,
3346,
3545,
3594,
3229,
3170,
3200,
3024,
3106,
2923,
3003,
2814,
2687,
2588,
2710,
4583,
2829,
2376,
4337,
5520,
2271,
2172,
2388,
2741,
2670,
2470,
2460,
1814,
1740,
1645,
1729,
2287,
7656,
4393,
1524,
1511,
1364,
1413,
1371,
1209,
1219,
1164,
1127,
1137,
1191,
1119,
1418,
3550,
1605,
947,
938,
798,
734,
747,
656,
657,
622,
622,
588,
562,
540,
517,
687,
575,
465,
455,
459,
354,
355,
325,
328,
316,
285,
286,
243,
217,
221,
185,
195,
183,
162,
175,
141,
146,
111,
123,
109,
103,
64,
80,
75,
62,
61,
49,
50,
30,
23,
21,
12,
8,
3,
3,
2,
4,
0,
2,
5,
0,
2,
3,
0,
0,
1,
2,
0,
3,
0,
1,
1,
0,
3,
5,
1,
1,
1,
1,
0,
1,
0,
1,
0,
1,
0,
1,
0,
2,
1,
1,
0,
1,
1,
1,
1,
0,
0,
0,
1,
0,
0,
0,
0,
0,
0,
0,
1,
0,
1,
0,
1,
0,
0,
0,
0,
1,
0,
0,
0,
1,
1,
0,
0,
0,
0,
0,
0,
0,
0,
0,
0,
0,
0,
0,
0,
0,
0,
0,
0,
0,
0,
0,
0,
0,
0,
0,
0,
0,
0,
0,
0,
0,
0,
0,
0,
0,
0,
0,
0,
0,
0,
0,
0,
0,
0,
0,
0,
0,
0,
0,
0,
0,
0,
0,
0,
0,
0,
0,
0,
0,
0,
0,
0,
0,
0,
0,
0,
0,
0,
0,
0,
0,
0,
0,
0,
0,
0,
0,
0,
0,
0,
0,
0,
#ENDOFDATA   :

File: GM IIIB K240[2][4].msa
#FORMAT      : EMSA/MAS Spectral Data File
#VERSION     : 1.0
#TITLE       : GM IIIB K240[2][all]
#DATE        : 10-SEP-2025
#TIME        : 18:43
#OWNER       : Unknown
#NPOINTS     : 4096
#NCOLUMNS    : 1
#XUNITS      : eV
#YUNITS      : counts
#DATATYPE    : Y
#XPERCHAN    : 9.99778
#OFFSET      : 1.69135
#BEAMKV      : 20
#SIGNALTYPE  : EDS
#ELEVANGLE   : 35
#AZIMANGLE   : 0
#LIVETIME    : 240.111
#REALTIME    : 259.886
#PROBECUR    : 1.2221
#TAUWIND     : 0
#TDEADLYR    : 0
#TACTLYR     : 0.045
#TALWIND     : 0.025
#CHOFFSET    : 0.0
#XLABEL      : Energy (eV)
#YLABEL      : Counts
#XPOSITION   : 12.21166
#YPOSITION   : 0.91719
#ZPOSITION   : 34.00159
#EDSDET      : SD
##SPECIMEN   : GM IIIB K240[2][all]
##D2STDCMP   : K240,(O:34.0),(Mg:3.02),(Si:18.7),(Ti:6.0),(Zn:4.02),(Zr:7.4),(Ba:26.87)
##DET_HASH   : 12273538-fd48-a23f-0a19-f1e6fa85caef
##CALIB_HASH : 6abaa72c-aa41-8738-0be9-f592914732f3
##WORKING    : 15.0 mm
##DET_NAME   : EDAX All
##DET_MODE   : MediumLE
#SPECTRUM    :
18,
365,
7890,
11428,
53140,
4639,
5338,
13364,
5237,
22551,
5683,
6549,
51682,
26768,
7735,
18154,
6493,
4640,
4857,
4589,
4544,
4391,
4440,
4359,
4204,
4176,
4106,
3862,
4895,
3789,
3687,
6409,
65136,
6159,
11260,
17394,
4771,
9077,
2956,
3625,
3746,
3086,
2738,
2331,
2250,
2304,
2243,
2097,
1913,
1882,
1880,
1793,
1781,
1804,
1722,
1517,
1666,
1528,
1548,
1464,
1419,
3011,
4096,
1334,
1324,
1267,
1174,
1204,
1571,
1278,
993,
1151,
1016,
916,
915,
871,
864,
855,
795,
784,
741,
704,
705,
675,
649,
606,
630,
621,
536,
524,
495,
487,
485,
409,
451,
430,
364,
372,
347,
355,
302,
318,
317,
258,
251,
261,
211,
265,
228,
226,
187,
187,
257,
217,
176,
152,
124,
127,
121,
108,
95,
96,
73,
80,
56,
77,
78,
62,
67,
41,
40,
34,
44,
38,
23,
22,
18,
14,
17,
9,
10,
9,
0,
0,
0,
2,
2,
1,
1,
0,
1,
2,
2,
1,
1,
0,
0,
1,
1,
0,
0,
0,
0,
0,
1,
1,
0,
0,
1,
0,
0,
0,
0,
0,
0,
0,
0,
0,
0,
0,
0,
0,
0,
0,
0,
0,
0,
0,
1,
0,
1,
0,
0,
0,
0,
0,
0,
0,
1,
0,
0,
0,
0,
0,
0,
0,
0,
0,
0,
0,
0,
0,
0,
0,
0,
0,
0,
0,
0,
1,
0,
0,
0,
0,
0,
0,
0,
0,
0,
0,
0,
0,
0,
0,
0,
0,
0,
0,
0,
0,
0,
0,
0,
0,
0,
0,
0,
0,
0,
0,
0,
0,
0,
0,
0,
0,
0,
0,
0,
0,
0,
0,
0,
0,
0,
0,
0,
0,
0,
0,
0,
0,
0,
0,
0,
0,
0,
0,
0,
0,
0,
0,
0,
0,
0,
0,
0,
0,
0,
0,
0,
0,
0,
0,
#ENDOFDATA   :

File: GM IIIB K249[3][4].msa
#FORMAT      : EMSA/MAS Spectral Data File
#VERSION     : 1.0
#TITLE       : GM IIIB K249[3][all]
#DATE        : 10-SEP-2025
#TIME        : 18:50
#OWNER       : Unknown
#NPOINTS     : 4096
#NCOLUMNS    : 1
#XUNITS      : eV
#YUNITS      : counts
#DATATYPE    : Y
#XPERCHAN    : 9.99778
#OFFSET      : 1.69135
#BEAMKV      : 20
#SIGNALTYPE  : EDS
#ELEVANGLE   : 35
#AZIMANGLE   : 0
#LIVETIME    : 240.182
#REALTIME    : 264.805
#PROBECUR    : 1.2221
#TAUWIND     : 0
#TDEADLYR    : 0
#TACTLYR     : 0.045
#TALWIND     : 0.025
#CHOFFSET    : 0.0
#XLABEL      : Energy (eV)
#YLABEL      : Counts
#XPOSITION   : 10.20145
#YPOSITION   : 0.74285
#ZPOSITION   : 34.00159
#EDSDET      : SD
##SPECIMEN   : GM IIIB K249[3][all]
##D2STDCMP   : K249,(O:24.49),(Al:2.65),(Si:14.02),(Ba:8.96),(Ta:8.19),(Pb:39.45),(Bi:2.24)
##DET_HASH   : 12273538-fd48-a23f-0a19-f1e6fa85caef
##CALIB_HASH : 6abaa72c-aa41-8738-0be9-f592914732f3
##WORKING    : 15.0 mm
##DET_NAME   : EDAX All
##DET_MODE   : MediumLE
#SPECTRUM    :
25,
466,
10271,
7911,
35432,
6800,
6736,
7528,
7499,
8537,
11029,
17692,
69716,
35919,
8002,
7318,
13386,
88201,
18978,
9929,
5361,
5593,
6652,
5482,
5166,
5261,
4964,
5018,
5236,
4989,
4903,
5557,
17908,
4912,
7111,
8267,
4850,
6308,
4055,
4395,
4345,
4035,
3881,
3674,
3522,
3594,
3769,
3327,
3245,
3166,
3169,
3135,
2961,
3091,
2878,
2704,
2604,
2908,
6547,
3362,
2478,
2328,
2234,
2228,
2161,
2358,
3084,
3464,
2458,
2638,
1981,
1843,
1781,
1695,
2252,
7389,
4274,
1953,
1810,
1464,
1440,
1354,
1264,
1240,
1146,
1138,
1121,
1096,
1148,
1475,
3459,
1589,
1084,
1128,
840,
749,
687,
647,
633,
654,
620,
555,
567,
518,
495,
713,
523,
483,
464,
426,
394,
345,
351,
336,
313,
313,
267,
249,
215,
206,
212,
203,
183,
178,
155,
143,
150,
122,
116,
106,
104,
94,
87,
77,
63,
59,
46,
39,
36,
33,
19,
13,
12,
3,
3,
7,
3,
2,
2,
3,
4,
5,
1,
2,
4,
0,
0,
0,
1,
1,
0,
0,
0,
1,
0,
3,
0,
0,
0,
0,
3,
1,
0,
1,
0,
1,
0,
0,
0,
0,
1,
1,
2,
0,
3,
1,
0,
1,
1,
0,
0,
2,
0,
0,
0,
0,
1,
0,
1,
0,
0,
1,
0,
0,
0,
0,
0,
1,
0,
0,
0,
0,
0,
0,
0,
0,
0,
0,
0,
0,
0,
0,
0,
0,
0,
0,
0,
0,
0,
0,
0,
0,
0,
0,
0,
0,
0,
0,
0,
0,
0,
0,
0,
0,
0,
0,
0,
0,
0,
0,
0,
0,
0,
0,
0,
0,
0,
0,
0,
0,
0,
0,
0,
0,
0,
0,
0,
0,
0,
0,
0,
0,
0,
0,
0,
0,
0,
0,
0,
0,
0,
0,
0,
0,
0,
0,
0,
0,
0,
0,
0,
0,
0,
0,
#ENDOFDATA   :

File: GM IIIB K249[4][4].msa
#FORMAT      : EMSA/MAS Spectral Data File
#VERSION     : 1.0
#TITLE       : GM IIIB K249[4][all]
#DATE        : 10-SEP-2025
#TIME        : 18:52
#OWNER       : Unknown
#NPOINTS     : 4096
#NCOLUMNS    : 1
#XUNITS      : eV
#YUNITS      : counts
#DATATYPE    : Y
#XPERCHAN    : 9.99778
#OFFSET      : 1.69135
#BEAMKV      : 20
#SIGNALTYPE  : EDS
#ELEVANGLE   : 35
#AZIMANGLE   : 0
#LIVETIME    : 240.137
#REALTIME    : 264.752
#PROBECUR    : 1.2221
#TAUWIND     : 0
#TDEADLYR    : 0
#TACTLYR     : 0.045
#TALWIND     : 0.025
#CHOFFSET    : 0.0
#XLABEL      : Energy (eV)
#YLABEL      : Counts
#XPOSITION   : 10.1776
#YPOSITION   : 0.81836
#ZPOSITION   : 34.00159
#EDSDET      : SD
##SPECIMEN   : GM IIIB K249[4][all]
##D2STDCMP   : K249,(O:24.49),(Al:2.65),(Si:14.02),(Ba:8.96),(Ta:8.19),(Pb:39.45),(Bi:2.24)
##DET_HASH   : 12273538-fd48-a23f-0a19-f1e6fa85caef
##CALIB_HASH : 6abaa72c-aa41-8738-0be9-f592914732f3
##WORKING    : 15.0 mm
##DET_NAME   : EDAX All
##DET_MODE   : MediumLE
#SPECTRUM    :
29,
452,
10573,
7862,
35236,
6975,
6760,
7248,
7614,
8537,
10802,
18051,
69567,
35919,
8129,
7267,
13316,
88442,
19186,
9867,
5316,
5623,
6729,
5539,
5187,
5277,
5065,
5115,
5190,
5141,
4845,
5587,
18349,
4839,
7022,
8390,
4844,
6148,
4015,
4318,
4432,
4080,
3897,
3738,
3542,
3544,
3658,
3366,
3308,
3167,
3097,
3213,
3007,
3044,
2926,
2711,
2658,
2829,
6564,
3324,
2548,
2309,
2369,
2221,
2189,
2520,
3086,
3400,
2311,
2493,
1917,
1805,
1696,
1700,
2271,
7345,
4287,
1909,
1856,
1415,
1495,
1468,
1226,
1235,
1227,
1172,
1191,
1171,
1127,
1466,
3363,
1531,
1032,
1113,
853,
768,
739,
734,
673,
689,
628,
591,
582,
554,
539,
650,
533,
456,
470,
462,
369,
317,
309,
346,
304,
297,
265,
260,
232,
211,
216,
191,
175,
191,
151,
136,
130,
139,
111,
106,
98,
84,
88,
79,
59,
62,
54,
44,
27,
26,
29,
15,
5,
2,
3,
6,
1,
4,
3,
1,
0,
0,
0,
1,
3,
1,
0,
6,
1,
0,
2,
1,
2,
0,
1,
1,
1,
2,
1,
0,
2,
1,
3,
0,
0,
0,
1,
0,
1,
0,
1,
0,
2,
1,
0,
0,
0,
0,
0,
0,
1,
0,
1,
0,
0,
1,
0,
0,
0,
0,
0,
0,
1,
0,
0,
1,
0,
0,
0,
0,
0,
0,
0,
0,
0,
0,
0,
0,
0,
0,
0,
0,
0,
0,
0,
0,
1,
0,
0,
0,
0,
0,
0,
0,
0,
0,
0,
0,
0,
0,
0,
0,
0,
0,
0,
0,
0,
0,
0,
0,
0,
0,
0,
0,
0,
0,
0,
0,
0,
0,
0,
0,
0,
0,
0,
0,
0,
0,
0,
0,
0,
0,
0,
0,
0,
0,
0,
0,
0,
0,
0,
0,
0,
0,
0,
0,
0,
0,
0,
0,
0,
0,
0,
0,
#ENDOFDATA   :

File: GM IIIB K251[2][4].msa
#FORMAT      : EMSA/MAS Spectral Data File
#VERSION     : 1.0
#TITLE       : GM IIIB K251[2][all]
#DATE        : 10-SEP-2025
#TIME        : 18:55
#OWNER       : Unknown
#NPOINTS     : 4096
#NCOLUMNS    : 1
#XUNITS      : eV
#YUNITS      : counts
#DATATYPE    : Y
#XPERCHAN    : 9.99778
#OFFSET      : 1.69135
#BEAMKV      : 20
#SIGNALTYPE  : EDS
#ELEVANGLE   : 35
#AZIMANGLE   : 0
#LIVETIME    : 240.316
#REALTIME    : 265.517
#PROBECUR    : 1.2221
#TAUWIND     : 0
#TDEADLYR    : 0
#TACTLYR     : 0.045
#TALWIND     : 0.025
#CHOFFSET    : 0.0
#XLABEL      : Energy (eV)
#YLABEL      : Counts
#XPOSITION   : 7.4733
#YPOSITION   : 0.84704
#ZPOSITION   : 34.00159
#EDSDET      : SD
##SPECIMEN   : GM IIIB K251[2][all]
##D2STDCMP   : K251,(O:23.02),(Al:1.32),(Si:14.02),(Ba:8.96),(Ta:4.09),(Pb:44.1),(Bi:4.48)
##DET_HASH   : 12273538-fd48-a23f-0a19-f1e6fa85caef
##CALIB_HASH : 6abaa72c-aa41-8738-0be9-f592914732f3
##WORKING    : 15.0 mm
##DET_NAME   : EDAX All
##DET_MODE   : MediumLE
#SPECTRUM    :
18,
492,
11026,
7959,
33389,
7608,
6778,
7480,
7596,
8725,
9994,
14277,
59710,
35457,
8444,
7940,
15114,
104996,
24125,
10785,
5515,
5862,
7027,
5688,
5347,
5392,
5160,
5133,
5273,
5220,
5027,
5680,
18144,
5033,
7271,
8417,
4964,
6557,
4238,
4527,
4490,
4270,
4108,
3763,
3734,
3740,
3903,
3566,
3351,
3323,
3295,
3293,
3070,
3248,
3144,
2947,
2750,
2793,
4700,
3098,
2566,
2432,
2392,
2396,
2339,
2441,
2885,
2810,
2329,
2379,
2036,
1872,
1830,
1830,
2454,
8294,
4726,
2224,
1939,
1546,
1502,
1429,
1344,
1322,
1250,
1234,
1265,
1265,
1212,
1593,
3676,
1738,
1159,
1235,
888,
857,
777,
705,
702,
690,
643,
607,
621,
564,
527,
726,
642,
540,
468,
447,
385,
390,
380,
344,
307,
335,
293,
303,
269,
235,
210,
219,
204,
205,
180,
158,
180,
140,
157,
128,
99,
86,
105,
85,
85,
55,
60,
35,
44,
22,
17,
23,
12,
9,
4,
4,
3,
4,
2,
0,
4,
1,
5,
3,
2,
2,
2,
2,
1,
1,
1,
1,
2,
0,
2,
2,
1,
1,
1,
0,
1,
3,
0,
1,
0,
0,
0,
1,
0,
0,
2,
1,
0,
0,
1,
3,
1,
0,
0,
0,
0,
0,
0,
1,
1,
0,
0,
0,
0,
0,
1,
0,
0,
0,
0,
0,
0,
0,
0,
0,
0,
2,
0,
0,
0,
0,
0,
0,
0,
0,
0,
0,
1,
0,
0,
1,
0,
0,
0,
0,
0,
0,
0,
0,
0,
0,
1,
0,
0,
0,
0,
0,
0,
0,
0,
0,
0,
0,
0,
0,
0,
0,
0,
0,
0,
0,
0,
0,
0,
0,
0,
0,
0,
0,
0,
0,
0,
0,
0,
0,
0,
0,
0,
0,
0,
0,
0,
0,
0,
0,
0,
0,
0,
0,
0,
0,
0,
0,
0,
0,
0,
0,
0,
0,
#ENDOFDATA   :