Folder: spex_quant/N132962/Quantification/20 keV/Glass Mount IIIB (part 2)

File: GM IIIB K251[3][4].msa
#FORMAT      : EMSA/MAS Spectral Data File
#VERSION     : 1.0
#TITLE       : GM IIIB K251[3][all]
#DATE        : 10-SEP-2025
#TIME        : 18:56
#OWNER       : Unknown
#NPOINTS     : 4096
#NCOLUMNS    : 1
#XUNITS      : eV
#YUNITS      : counts
#DATATYPE    : Y
#XPERCHAN    : 9.99778
#OFFSET      : 1.69135
#BEAMKV      : 20
#SIGNALTYPE  : EDS
#ELEVANGLE   : 35
#AZIMANGLE   : 0
#LIVETIME    : 240.257
#REALTIME    : 265.451
#PROBECUR    : 1.2221
#TAUWIND     : 0
#TDEADLYR    : 0
#TACTLYR     : 0.045
#TALWIND     : 0.025
#CHOFFSET    : 0.0
#XLABEL      : Energy (eV)
#YLABEL      : Counts
#XPOSITION   : 7.42593
#YPOSITION   : 0.83233
#ZPOSITION   : 34.00159
#EDSDET      : SD
##SPECIMEN   : GM IIIB K251[3][all]
##D2STDCMP   : K251,(O:23.02),(Al:1.32),(Si:14.02),(Ba:8.96),(Ta:4.09),(Pb:44.1),(Bi:4.48)
##DET_HASH   : 12273538-fd48-a23f-0a19-f1e6fa85caef
##CALIB_HASH : 6abaa72c-aa41-8738-0be9-f592914732f3
##WORKING    : 15.0 mm
##DET_NAME   : EDAX All
##DET_MODE   : MediumLE
#SPECTRUM    :
17,
505,
11117,
7951,
33166,
7575,
6778,
7361,
7667,
8607,
10043,
14209,
60305,
35538,
8195,
8046,
15046,
105177,
24432,
10777,
5582,
5945,
7082,
5821,
5286,
5449,
5172,
5249,
5461,
5245,
5141,
5708,
18125,
5113,
7199,
8353,
4928,
6506,
4336,
4563,
4590,
4188,
4081,
3835,
3708,
3726,
3838,
3491,
3430,
3347,
3249,
3266,
3120,
3202,
3042,
2872,
2770,
2801,
4807,
3104,
2559,
2463,
2380,
2408,
2309,
2490,
2834,
2676,
2253,
2380,
2009,
1894,
1835,
1796,
2501,
8444,
4619,
2220,
1936,
1500,
1471,
1396,
1378,
1235,
1306,
1234,
1251,
1213,
1281,
1588,
3834,
1756,
1155,
1301,
855,
805,
729,
710,
726,
685,
661,
604,
580,
564,
575,
677,
624,
494,
519,
493,
435,
423,
347,
332,
367,
311,
283,
238,
256,
258,
260,
247,
202,
195,
170,
162,
141,
146,
112,
124,
102,
109,
93,
68,
68,
58,
59,
47,
33,
26,
29,
15,
9,
4,
4,
1,
4,
3,
4,
2,
4,
1,
5,
2,
1,
3,
1,
2,
1,
2,
2,
2,
1,
1,
2,
1,
3,
0,
2,
1,
0,
1,
0,
1,
2,
0,
1,
1,
0,
2,
0,
0,
3,
2,
0,
2,
1,
0,
1,
0,
0,
1,
0,
0,
0,
0,
3,
1,
0,
0,
0,
1,
0,
0,
0,
0,
0,
0,
0,
0,
0,
0,
1,
1,
0,
0,
0,
0,
0,
0,
0,
0,
0,
0,
0,
0,
0,
0,
0,
0,
0,
0,
0,
0,
0,
0,
0,
1,
0,
0,
0,
0,
0,
0,
0,
1,
0,
0,
0,
0,
0,
0,
0,
0,
0,
0,
0,
0,
0,
0,
0,
0,
0,
0,
0,
0,
0,
0,
0,
0,
0,
0,
0,
0,
0,
0,
0,
0,
0,
0,
0,
0,
0,
0,
0,
0,
0,
0,
0,
0,
0,
0,
0,
0,
#ENDOFDATA   :

File: GM IIIB K251[4][4].msa
#FORMAT      : EMSA/MAS Spectral Data File
#VERSION     : 1.0
#TITLE       : GM IIIB K251[4][all]
#DATE        : 10-SEP-2025
#TIME        : 18:58
#OWNER       : Unknown
#NPOINTS     : 4096
#NCOLUMNS    : 1
#XUNITS      : eV
#YUNITS      : counts
#DATATYPE    : Y
#XPERCHAN    : 9.99778
#OFFSET      : 1.69135
#BEAMKV      : 20
#SIGNALTYPE  : EDS
#ELEVANGLE   : 35
#AZIMANGLE   : 0
#LIVETIME    : 240.2055
#REALTIME    : 265.3949
#PROBECUR    : 1.2221
#TAUWIND     : 0
#TDEADLYR    : 0
#TACTLYR     : 0.045
#TALWIND     : 0.025
#CHOFFSET    : 0.0
#XLABEL      : Energy (eV)
#YLABEL      : Counts
#XPOSITION   : 7.38813
#YPOSITION   : 0.87921
#ZPOSITION   : 34.00159
#EDSDET      : SD
##SPECIMEN   : GM IIIB K251[4][all]
##D2STDCMP   : K251,(O:23.02),(Al:1.32),(Si:14.02),(Ba:8.96),(Ta:4.09),(Pb:44.1),(Bi:4.48)
##DET_HASH   : 12273538-fd48-a23f-0a19-f1e6fa85caef
##CALIB_HASH : 6abaa72c-aa41-8738-0be9-f592914732f3
##WORKING    : 15.0 mm
##DET_NAME   : EDAX All
##DET_MODE   : MediumLE
#SPECTRUM    :
34,
512,
10595,
7922,
33906,
7455,
6779,
7543,
7643,
8700,
10193,
14325,
59833,
36090,
8259,
8162,
15037,
104879,
24485,
10765,
5685,
5924,
6955,
5705,
5266,
5471,
5083,
5117,
5433,
5161,
5144,
5588,
18192,
4944,
7405,
8570,
4819,
6514,
4374,
4605,
4547,
4215,
4039,
3647,
3638,
3670,
3895,
3523,
3394,
3345,
3179,
3191,
3087,
3150,
2941,
2852,
2756,
2880,
4728,
3038,
2511,
2528,
2364,
2459,
2326,
2551,
2774,
2858,
2274,
2420,
1945,
1860,
1910,
1793,
2478,
8246,
4778,
2168,
2031,
1519,
1469,
1534,
1388,
1250,
1304,
1210,
1234,
1288,
1202,
1555,
3859,
1709,
1117,
1309,
855,
820,
773,
754,
714,
730,
643,
609,
640,
606,
565,
699,
592,
457,
475,
469,
422,
407,
385,
363,
340,
339,
298,
292,
254,
234,
223,
240,
175,
171,
159,
158,
166,
129,
143,
140,
102,
95,
101,
91,
68,
62,
48,
42,
39,
27,
25,
17,
9,
10,
6,
2,
4,
6,
4,
4,
1,
1,
3,
1,
1,
1,
1,
1,
0,
1,
0,
1,
0,
2,
0,
0,
0,
1,
2,
1,
0,
0,
1,
0,
1,
0,
1,
2,
0,
2,
1,
2,
0,
1,
0,
0,
0,
1,
1,
2,
1,
1,
0,
1,
2,
0,
1,
0,
1,
0,
1,
2,
1,
0,
0,
0,
0,
0,
0,
0,
1,
0,
1,
0,
0,
0,
0,
0,
0,
0,
0,
0,
0,
0,
0,
1,
0,
0,
0,
1,
0,
0,
1,
0,
0,
0,
0,
0,
0,
1,
0,
0,
0,
0,
0,
0,
0,
0,
0,
0,
0,
0,
0,
0,
0,
0,
0,
0,
0,
0,
0,
0,
0,
0,
0,
0,
0,
0,
0,
0,
0,
0,
0,
0,
0,
0,
0,
0,
0,
0,
0,
0,
0,
0,
0,
0,
0,
0,
0,
0,
0,
0,
0,
0,
#ENDOFDATA   :

File: GM IIIB K252[0][4].msa
#FORMAT      : EMSA/MAS Spectral Data File
#VERSION     : 1.0
#TITLE       : GM IIIB K252[0][all]
#DATE        : 10-SEP-2025
#TIME        : 18:59
#OWNER       : Unknown
#NPOINTS     : 4096
#NCOLUMNS    : 1
#XUNITS      : eV
#YUNITS      : counts
#DATATYPE    : Y
#XPERCHAN    : 9.99778
#OFFSET      : 1.69135
#BEAMKV      : 20
#SIGNALTYPE  : EDS
#ELEVANGLE   : 35
#AZIMANGLE   : 0
#LIVETIME    : 240.208
#REALTIME    : 261.478
#PROBECUR    : 1.2221
#TAUWIND     : 0
#TDEADLYR    : 0
#TACTLYR     : 0.045
#TALWIND     : 0.025
#CHOFFSET    : 0.0
#XLABEL      : Energy (eV)
#YLABEL      : Counts
#XPOSITION   : 5.60879
#YPOSITION   : 0.65714
#ZPOSITION   : 34.00159
#EDSDET      : SD
##SPECIMEN   : GM IIIB K252[0][all]
##D2STDCMP   : K252,(O:30.83),(Si:18.7),(Mn:3.16),(Co:3.93),(Cu:3.99),(Zn:8.03),(Ba:31.35)
##DET_HASH   : 12273538-fd48-a23f-0a19-f1e6fa85caef
##CALIB_HASH : 6abaa72c-aa41-8738-0be9-f592914732f3
##WORKING    : 15.0 mm
##DET_NAME   : EDAX All
##DET_MODE   : MediumLE
#SPECTRUM    :
33,
334,
7815,
10674,
69466,
7424,
7728,
23310,
4951,
4591,
5215,
6359,
48373,
24410,
4711,
4822,
5452,
5043,
5070,
5206,
4939,
4815,
4955,
4632,
4559,
4599,
4379,
4379,
5538,
4344,
4037,
7225,
54628,
4462,
13345,
17675,
5064,
11073,
3156,
4257,
4349,
3707,
11198,
3273,
2426,
2426,
3348,
2569,
2199,
5833,
4979,
1980,
1946,
2075,
2205,
2457,
1833,
4919,
3786,
1599,
1633,
4947,
7552,
1870,
1785,
1368,
1324,
1335,
2208,
1658,
1158,
1131,
1081,
1050,
1033,
985,
950,
909,
910,
924,
862,
798,
766,
759,
729,
706,
677,
672,
654,
578,
538,
521,
564,
495,
503,
474,
443,
431,
421,
364,
354,
336,
304,
340,
308,
291,
268,
279,
253,
253,
211,
208,
179,
196,
172,
154,
149,
128,
138,
121,
122,
111,
107,
84,
86,
98,
75,
69,
59,
71,
59,
41,
45,
35,
28,
24,
23,
21,
27,
18,
12,
7,
5,
3,
1,
0,
0,
2,
1,
2,
0,
0,
3,
0,
1,
0,
1,
0,
1,
0,
0,
0,
0,
1,
1,
0,
0,
0,
0,
0,
1,
0,
1,
0,
0,
0,
1,
1,
0,
0,
0,
0,
0,
0,
0,
0,
1,
0,
1,
0,
1,
0,
0,
0,
0,
1,
0,
1,
0,
0,
0,
0,
0,
0,
0,
0,
0,
0,
0,
0,
0,
0,
0,
0,
0,
0,
0,
0,
0,
0,
0,
0,
0,
0,
0,
0,
0,
0,
0,
0,
0,
0,
0,
0,
0,
0,
0,
0,
0,
0,
0,
0,
0,
0,
0,
0,
0,
0,
0,
0,
0,
0,
0,
0,
0,
0,
0,
0,
0,
0,
0,
0,
0,
0,
0,
0,
0,
0,
0,
0,
0,
0,
0,
0,
0,
0,
0,
0,
0,
0,
0,
0,
0,
0,
0,
0,
0,
0,
0,
0,
0,
0,
0,
0,
#ENDOFDATA   :

File: GM IIIB K252[1][4].msa
#FORMAT      : EMSA/MAS Spectral Data File
#VERSION     : 1.0
#TITLE       : GM IIIB K252[1][all]
#DATE        : 10-SEP-2025
#TIME        : 19:00
#OWNER       : Unknown
#NPOINTS     : 4096
#NCOLUMNS    : 1
#XUNITS      : eV
#YUNITS      : counts
#DATATYPE    : Y
#XPERCHAN    : 9.99778
#OFFSET      : 1.69135
#BEAMKV      : 20
#SIGNALTYPE  : EDS
#ELEVANGLE   : 35
#AZIMANGLE   : 0
#LIVETIME    : 240.165
#REALTIME    : 261.423
#PROBECUR    : 1.2221
#TAUWIND     : 0
#TDEADLYR    : 0
#TACTLYR     : 0.045
#TALWIND     : 0.025
#CHOFFSET    : 0.0
#XLABEL      : Energy (eV)
#YLABEL      : Counts
#XPOSITION   : 5.61341
#YPOSITION   : 0.69859
#ZPOSITION   : 34.00159
#EDSDET      : SD
##SPECIMEN   : GM IIIB K252[1][all]
##D2STDCMP   : K252,(O:30.83),(Si:18.7),(Mn:3.16),(Co:3.93),(Cu:3.99),(Zn:8.03),(Ba:31.35)
##DET_HASH   : 12273538-fd48-a23f-0a19-f1e6fa85caef
##CALIB_HASH : 6abaa72c-aa41-8738-0be9-f592914732f3
##WORKING    : 15.0 mm
##DET_NAME   : EDAX All
##DET_MODE   : MediumLE
#SPECTRUM    :
23,
356,
7777,
10732,
68724,
7141,
7754,
23385,
4944,
4539,
5196,
6352,
48189,
24160,
4700,
4766,
5348,
5064,
5046,
5155,
5143,
4914,
4904,
4766,
4587,
4549,
4281,
4256,
5537,
4266,
4112,
7203,
54797,
4374,
13145,
17770,
5046,
11294,
3062,
4210,
4314,
3864,
11047,
3101,
2428,
2425,
3355,
2637,
2085,
5855,
4935,
2004,
1960,
1975,
2291,
2380,
1840,
4801,
3751,
1621,
1589,
5059,
7363,
1962,
1902,
1269,
1313,
1307,
2077,
1633,
1183,
1088,
1083,
1093,
1056,
1033,
934,
897,
894,
839,
861,
776,
740,
749,
666,
686,
681,
653,
627,
576,
579,
558,
512,
509,
456,
497,
446,
424,
359,
421,
354,
349,
309,
334,
303,
276,
284,
253,
248,
252,
225,
214,
203,
194,
185,
185,
151,
126,
125,
113,
115,
114,
105,
104,
91,
80,
85,
77,
56,
59,
45,
49,
40,
25,
33,
26,
30,
22,
20,
15,
13,
4,
3,
1,
2,
1,
1,
2,
0,
0,
2,
1,
1,
1,
1,
1,
1,
0,
0,
2,
1,
1,
2,
0,
1,
1,
0,
0,
0,
0,
0,
0,
0,
2,
0,
0,
0,
0,
0,
0,
0,
0,
0,
0,
0,
0,
0,
0,
0,
0,
0,
0,
0,
0,
0,
0,
0,
0,
0,
0,
0,
0,
0,
0,
0,
0,
0,
0,
0,
0,
0,
0,
1,
0,
0,
0,
0,
0,
0,
0,
0,
0,
0,
0,
0,
0,
0,
0,
0,
0,
0,
0,
0,
0,
0,
0,
0,
0,
0,
0,
0,
0,
0,
0,
0,
0,
0,
0,
0,
0,
0,
0,
0,
0,
0,
0,
0,
0,
0,
0,
0,
0,
0,
0,
0,
0,
0,
0,
0,
0,
0,
0,
0,
0,
0,
0,
0,
0,
0,
0,
0,
0,
0,
0,
0,
0,
0,
0,
0,
0,
0,
0,
0,
0,
#ENDOFDATA   :

File: GM IIIB K252[3][4].msa
#FORMAT      : EMSA/MAS Spectral Data File
#VERSION     : 1.0
#TITLE       : GM IIIB K252[3][all]
#DATE        : 10-SEP-2025
#TIME        : 19:02
#OWNER       : Unknown
#NPOINTS     : 4096
#NCOLUMNS    : 1
#XUNITS      : eV
#YUNITS      : counts
#DATATYPE    : Y
#XPERCHAN    : 9.99778
#OFFSET      : 1.69135
#BEAMKV      : 20
#SIGNALTYPE  : EDS
#ELEVANGLE   : 35
#AZIMANGLE   : 0
#LIVETIME    : 240.233
#REALTIME    : 261.4801
#PROBECUR    : 1.2221
#TAUWIND     : 0
#TDEADLYR    : 0
#TACTLYR     : 0.045
#TALWIND     : 0.025
#CHOFFSET    : 0.0
#XLABEL      : Energy (eV)
#YLABEL      : Counts
#XPOSITION   : 5.52354
#YPOSITION   : 0.65872
#ZPOSITION   : 34.00159
#EDSDET      : SD
##SPECIMEN   : GM IIIB K252[3][all]
##D2STDCMP   : K252,(O:30.83),(Si:18.7),(Mn:3.16),(Co:3.93),(Cu:3.99),(Zn:8.03),(Ba:31.35)
##DET_HASH   : 12273538-fd48-a23f-0a19-f1e6fa85caef
##CALIB_HASH : 6abaa72c-aa41-8738-0be9-f592914732f3
##WORKING    : 15.0 mm
##DET_NAME   : EDAX All
##DET_MODE   : MediumLE
#SPECTRUM    :
31,
339,
8332,
10605,
69292,
7188,
7763,
23277,
4990,
4744,
5276,
6527,
48408,
24586,
4598,
4857,
5379,
5060,
5080,
5244,
5151,
4794,
4967,
4750,
4642,
4635,
4501,
4256,
5655,
4414,
3971,
7310,
54859,
4414,
13298,
17862,
5152,
11117,
3166,
4353,
4407,
3584,
11263,
3319,
2434,
2420,
3341,
2566,
2207,
5728,
4799,
2053,
1956,
1996,
2209,
2385,
1717,
4855,
3775,
1634,
1650,
5124,
7429,
1876,
1831,
1358,
1296,
1322,
2078,
1657,
1148,
1094,
1077,
1045,
969,
968,
994,
942,
922,
909,
811,
769,
767,
733,
764,
731,
714,
672,
618,
615,
522,
547,
518,
570,
483,
474,
435,
452,
417,
363,
387,
351,
298,
307,
298,
259,
244,
265,
227,
223,
224,
221,
199,
188,
176,
169,
156,
157,
126,
115,
119,
99,
115,
96,
101,
89,
77,
85,
60,
55,
44,
52,
54,
38,
32,
32,
25,
21,
16,
14,
14,
5,
2,
0,
4,
2,
4,
3,
0,
0,
1,
2,
3,
0,
1,
0,
0,
0,
2,
0,
1,
0,
0,
1,
1,
1,
0,
0,
1,
0,
0,
0,
0,
0,
0,
0,
0,
0,
0,
0,
1,
0,
1,
0,
0,
0,
0,
0,
0,
0,
0,
0,
0,
0,
0,
0,
0,
0,
1,
0,
0,
0,
0,
0,
0,
0,
0,
1,
0,
0,
0,
0,
0,
0,
0,
0,
0,
0,
0,
0,
0,
0,
0,
0,
0,
0,
0,
0,
0,
0,
0,
0,
0,
0,
0,
0,
0,
0,
0,
0,
0,
0,
0,
0,
0,
0,
0,
0,
0,
0,
0,
0,
0,
0,
0,
0,
0,
0,
0,
0,
0,
0,
0,
0,
0,
0,
0,
0,
0,
0,
0,
0,
0,
0,
0,
0,
0,
0,
0,
0,
0,
0,
0,
0,
0,
0,
0,
0,
0,
0,
0,
0,
0,
0,
#ENDOFDATA   :

File: GM IIIB K253[1][4].msa
#FORMAT      : EMSA/MAS Spectral Data File
#VERSION     : 1.0
#TITLE       : GM IIIB K253[1][all]
#DATE        : 10-SEP-2025
#TIME        : 19:06
#OWNER       : Unknown
#NPOINTS     : 4096
#NCOLUMNS    : 1
#XUNITS      : eV
#YUNITS      : counts
#DATATYPE    : Y
#XPERCHAN    : 9.99778
#OFFSET      : 1.69135
#BEAMKV      : 20
#SIGNALTYPE  : EDS
#ELEVANGLE   : 35
#AZIMANGLE   : 0
#LIVETIME    : 240.2238
#REALTIME    : 261.602
#PROBECUR    : 1.2221
#TAUWIND     : 0
#TDEADLYR    : 0
#TACTLYR     : 0.045
#TALWIND     : 0.025
#CHOFFSET    : 0.0
#XLABEL      : Energy (eV)
#YLABEL      : Counts
#XPOSITION   : 3.16249
#YPOSITION   : 0.66521
#ZPOSITION   : 34.00159
#EDSDET      : SD
##SPECIMEN   : GM IIIB K253[1][all]
##D2STDCMP   : K253,(O:31.64),(Si:18.7),(Mn:6.32),(Co:1.97),(Cu:2.0),(Zn:8.03),(Ba:31.35)
##DET_HASH   : 12273538-fd48-a23f-0a19-f1e6fa85caef
##CALIB_HASH : 6abaa72c-aa41-8738-0be9-f592914732f3
##WORKING    : 15.0 mm
##DET_NAME   : EDAX All
##DET_MODE   : MediumLE
#SPECTRUM    :
16,
343,
8062,
10685,
70841,
6757,
6825,
21763,
4971,
4559,
5129,
6452,
48840,
24827,
4705,
4864,
5424,
5236,
5171,
5283,
5174,
4810,
4935,
4633,
4429,
4713,
4347,
4241,
5450,
4386,
4094,
7213,
55160,
4463,
13490,
18131,
4961,
11085,
3087,
4164,
4402,
4016,
18818,
3886,
2436,
2372,
3935,
2785,
2144,
4076,
3527,
2026,
1935,
1979,
2058,
2049,
1746,
3547,
2860,
1635,
1595,
4994,
7243,
1709,
1601,
1357,
1335,
1414,
2056,
1589,
1185,
1172,
1085,
1063,
1053,
1000,
950,
922,
911,
866,
871,
817,
807,
725,
696,
657,
648,
648,
636,
603,
576,
543,
508,
545,
481,
464,
469,
419,
428,
393,
387,
351,
319,
324,
298,
271,
267,
243,
257,
227,
218,
221,
166,
168,
170,
160,
151,
148,
133,
121,
102,
108,
102,
85,
102,
78,
79,
63,
68,
55,
45,
45,
37,
41,
35,
21,
27,
27,
14,
24,
8,
6,
4,
1,
3,
1,
4,
2,
1,
2,
0,
1,
0,
1,
0,
0,
0,
4,
0,
0,
4,
2,
1,
0,
0,
1,
0,
0,
0,
1,
0,
0,
1,
0,
0,
2,
0,
0,
0,
1,
0,
0,
0,
1,
1,
0,
0,
0,
0,
0,
0,
0,
0,
0,
0,
0,
0,
0,
0,
0,
0,
0,
0,
1,
1,
0,
0,
0,
0,
0,
0,
0,
0,
0,
0,
0,
0,
0,
0,
0,
0,
0,
0,
0,
0,
0,
0,
0,
0,
0,
0,
0,
0,
0,
0,
0,
0,
0,
0,
0,
0,
0,
0,
0,
0,
0,
0,
0,
0,
0,
0,
0,
0,
0,
0,
0,
0,
0,
0,
0,
0,
0,
0,
0,
0,
0,
0,
0,
0,
0,
0,
0,
0,
0,
0,
0,
0,
0,
0,
0,
0,
0,
0,
0,
0,
0,
0,
0,
0,
0,
0,
0,
0,
0,
#ENDOFDATA   :

File: GM IIIB K253[4][4].msa
#FORMAT      : EMSA/MAS Spectral Data File
#VERSION     : 1.0
#TITLE       : GM IIIB K253[4][all]
#DATE        : 10-SEP-2025
#TIME        : 19:09
#OWNER       : Unknown
#NPOINTS     : 4096
#NCOLUMNS    : 1
#XUNITS      : eV
#YUNITS      : counts
#DATATYPE    : Y
#XPERCHAN    : 9.99778
#OFFSET      : 1.69135
#BEAMKV      : 20
#SIGNALTYPE  : EDS
#ELEVANGLE   : 35
#AZIMANGLE   : 0
#LIVETIME    : 240.185
#REALTIME    : 261.553
#PROBECUR    : 1.2221
#TAUWIND     : 0
#TDEADLYR    : 0
#TACTLYR     : 0.045
#TALWIND     : 0.025
#CHOFFSET    : 0.0
#XLABEL      : Energy (eV)
#YLABEL      : Counts
#XPOSITION   : 3.19293
#YPOSITION   : 0.59418
#ZPOSITION   : 34.00159
#EDSDET      : SD
##SPECIMEN   : GM IIIB K253[4][all]
##D2STDCMP   : K253,(O:31.64),(Si:18.7),(Mn:6.32),(Co:1.97),(Cu:2.0),(Zn:8.03),(Ba:31.35)
##DET_HASH   : 12273538-fd48-a23f-0a19-f1e6fa85caef
##CALIB_HASH : 6abaa72c-aa41-8738-0be9-f592914732f3
##WORKING    : 15.0 mm
##DET_NAME   : EDAX All
##DET_MODE   : MediumLE
#SPECTRUM    :
24,
316,
7818,
10819,
70648,
6660,
6630,
21980,
5075,
4621,
5231,
6295,
48460,
24902,
4659,
4779,
5232,
4899,
4984,
5205,
4924,
4805,
4973,
4770,
4624,
4702,
4511,
4274,
5605,
4377,
4048,
7209,
55397,
4464,
13332,
18007,
5056,
11247,
3176,
4308,
4370,
3880,
18558,
3863,
2374,
2440,
4029,
2848,
2172,
4150,
3704,
2056,
1886,
1961,
2058,
2120,
1681,
3412,
2794,
1641,
1581,
5006,
7573,
1753,
1693,
1374,
1338,
1340,
2023,
1637,
1197,
1094,
1095,
1064,
1091,
926,
966,
903,
882,
869,
825,
788,
796,
731,
762,
720,
689,
641,
655,
595,
571,
565,
527,
499,
475,
464,
444,
396,
411,
358,
371,
324,
378,
285,
273,
286,
293,
256,
244,
252,
211,
204,
180,
197,
166,
157,
148,
151,
117,
139,
131,
105,
115,
76,
92,
87,
74,
64,
61,
49,
70,
37,
47,
51,
37,
30,
24,
21,
18,
13,
7,
6,
6,
4,
1,
1,
2,
0,
3,
2,
2,
1,
0,
0,
2,
1,
0,
1,
1,
0,
0,
0,
1,
1,
0,
0,
1,
0,
0,
0,
2,
1,
0,
0,
0,
0,
0,
0,
1,
0,
0,
0,
0,
1,
0,
0,
0,
1,
0,
0,
0,
0,
0,
0,
0,
0,
0,
0,
0,
0,
0,
0,
0,
0,
0,
0,
0,
1,
0,
0,
0,
0,
0,
0,
0,
0,
0,
0,
0,
0,
0,
0,
0,
0,
1,
0,
0,
0,
0,
0,
0,
0,
0,
0,
0,
0,
0,
0,
0,
0,
0,
0,
0,
0,
0,
0,
0,
0,
0,
0,
0,
0,
0,
0,
0,
0,
0,
0,
0,
0,
0,
0,
0,
0,
0,
0,
0,
0,
0,
0,
0,
0,
0,
0,
0,
0,
0,
0,
0,
0,
0,
0,
0,
0,
0,
0,
0,
0,
0,
0,
0,
0,
0,
0,
#ENDOFDATA   :

File: GM IIIB K366[0][4].msa
#FORMAT      : EMSA/MAS Spectral Data File
#VERSION     : 1.0
#TITLE       : GM IIIB K366[0][all]
#DATE        : 10-SEP-2025
#TIME        : 18:23
#OWNER       : Unknown
#NPOINTS     : 4096
#NCOLUMNS    : 1
#XUNITS      : eV
#YUNITS      : counts
#DATATYPE    : Y
#XPERCHAN    : 9.99778
#OFFSET      : 1.69135
#BEAMKV      : 20
#SIGNALTYPE  : EDS
#ELEVANGLE   : 35
#AZIMANGLE   : 0
#LIVETIME    : 240.32
#REALTIME    : 267.751
#PROBECUR    : 1.22475
#TAUWIND     : 0
#TDEADLYR    : 0
#TACTLYR     : 0.045
#TALWIND     : 0.025
#CHOFFSET    : 0.0
#XLABEL      : Energy (eV)
#YLABEL      : Counts
#XPOSITION   : 8.46941
#YPOSITION   : 3.0126
#ZPOSITION   : 34.00159
#EDSDET      : SD
##SPECIMEN   : GM IIIB K366[0][all]
##D2STDCMP   : K366,(O:20.43),(Si:13.45),(Pb:66.12)
##DET_HASH   : 12273538-fd48-a23f-0a19-f1e6fa85caef
##CALIB_HASH : 6abaa72c-aa41-8738-0be9-f592914732f3
##WORKING    : 15.0 mm
##DET_NAME   : EDAX All
##DET_MODE   : MediumLE
#SPECTRUM    :
25,
551,
11951,
7349,
27851,
8531,
7214,
7769,
8491,
9552,
10342,
11322,
52655,
40186,
9205,
9539,
20236,
159647,
26930,
12702,
5609,
6247,
7701,
5852,
5323,
5608,
5388,
5326,
5138,
5533,
5298,
5066,
5626,
5062,
5271,
5023,
4843,
4803,
4795,
4609,
4577,
4383,
4153,
4305,
4035,
4223,
4314,
3881,
3731,
3664,
3742,
3669,
3459,
3572,
3394,
3189,
3128,
3034,
3044,
2969,
2808,
2786,
2708,
2678,
2478,
2763,
2953,
2440,
2195,
2254,
2247,
2193,
2213,
2062,
3128,
12315,
6651,
1917,
1796,
1695,
1639,
1644,
1524,
1530,
1377,
1429,
1437,
1587,
1461,
2022,
5635,
2247,
1280,
1318,
973,
918,
893,
855,
800,
703,
744,
678,
680,
701,
663,
918,
764,
580,
669,
542,
439,
409,
400,
376,
419,
365,
322,
319,
326,
307,
277,
241,
261,
229,
185,
173,
183,
172,
153,
138,
134,
120,
117,
95,
78,
85,
49,
55,
41,
34,
28,
22,
13,
2,
4,
9,
4,
4,
5,
2,
6,
3,
1,
0,
3,
4,
5,
0,
2,
0,
5,
1,
1,
0,
1,
4,
2,
0,
1,
0,
1,
0,
1,
0,
2,
0,
1,
1,
0,
1,
3,
1,
1,
1,
0,
0,
0,
1,
0,
0,
0,
0,
1,
0,
0,
0,
1,
0,
1,
0,
0,
0,
0,
1,
0,
1,
0,
0,
1,
0,
1,
0,
0,
0,
0,
1,
0,
0,
0,
0,
0,
0,
0,
0,
1,
0,
0,
0,
1,
0,
0,
1,
0,
0,
0,
0,
0,
0,
0,
0,
0,
0,
0,
0,
0,
0,
0,
0,
0,
0,
0,
0,
0,
0,
0,
0,
0,
0,
0,
0,
0,
0,
0,
0,
0,
0,
0,
0,
0,
0,
0,
0,
0,
0,
0,
0,
0,
0,
0,
0,
0,
0,
0,
0,
0,
0,
0,
0,
0,
0,
0,
0,
0,
0,
#ENDOFDATA   :

File: GM IIIB K366[2][4].msa
#FORMAT      : EMSA/MAS Spectral Data File
#VERSION     : 1.0
#TITLE       : GM IIIB K366[2][all]
#DATE        : 10-SEP-2025
#TIME        : 18:26
#OWNER       : Unknown
#NPOINTS     : 4096
#NCOLUMNS    : 1
#XUNITS      : eV
#YUNITS      : counts
#DATATYPE    : Y
#XPERCHAN    : 9.99778
#OFFSET      : 1.69135
#BEAMKV      : 20
#SIGNALTYPE  : EDS
#ELEVANGLE   : 35
#AZIMANGLE   : 0
#LIVETIME    : 240.266
#REALTIME    : 267.6962
#PROBECUR    : 1.22475
#TAUWIND     : 0
#TDEADLYR    : 0
#TACTLYR     : 0.045
#TALWIND     : 0.025
#CHOFFSET    : 0.0
#XLABEL      : Energy (eV)
#YLABEL      : Counts
#XPOSITION   : 8.40204
#YPOSITION   : 3.0077
#ZPOSITION   : 34.00159
#EDSDET      : SD
##SPECIMEN   : GM IIIB K366[2][all]
##D2STDCMP   : K366,(O:20.43),(Si:13.45),(Pb:66.12)
##DET_HASH   : 12273538-fd48-a23f-0a19-f1e6fa85caef
##CALIB_HASH : 6abaa72c-aa41-8738-0be9-f592914732f3
##WORKING    : 15.0 mm
##DET_NAME   : EDAX All
##DET_MODE   : MediumLE
#SPECTRUM    :
41,
601,
12153,
7535,
27962,
8252,
7282,
7642,
8619,
9576,
10629,
11376,
52443,
40633,
9192,
9672,
20673,
160695,
26705,
12986,
5575,
6090,
7775,
5629,
5489,
5660,
5397,
5255,
5012,
5416,
5396,
5175,
5497,
5146,
5151,
5012,
4754,
4601,
4638,
4526,
4473,
4326,
4362,
4140,
4107,
4116,
4288,
3963,
3806,
3737,
3716,
3491,
3600,
3650,
3330,
3188,
3154,
3064,
3008,
2972,
2845,
2741,
2703,
2652,
2526,
2886,
2865,
2343,
2359,
2269,
2135,
2115,
2088,
2042,
3272,
12221,
6733,
1938,
1664,
1619,
1698,
1637,
1594,
1452,
1386,
1456,
1372,
1498,
1409,
2001,
5518,
2319,
1252,
1272,
992,
870,
842,
840,
758,
799,
801,
707,
636,
650,
663,
897,
706,
616,
605,
549,
504,
484,
454,
389,
427,
390,
363,
339,
322,
272,
253,
259,
219,
195,
222,
192,
175,
158,
173,
130,
139,
120,
108,
91,
87,
74,
69,
55,
35,
33,
23,
19,
16,
7,
3,
4,
0,
1,
1,
3,
3,
5,
1,
2,
1,
3,
1,
3,
3,
3,
2,
1,
3,
2,
4,
0,
2,
2,
0,
0,
0,
2,
0,
2,
1,
0,
0,
0,
0,
0,
1,
0,
0,
0,
1,
1,
4,
0,
1,
2,
0,
0,
1,
0,
1,
0,
0,
1,
0,
0,
0,
3,
0,
0,
0,
0,
0,
0,
0,
1,
0,
1,
1,
0,
0,
0,
1,
0,
0,
0,
0,
0,
0,
0,
0,
0,
0,
0,
0,
0,
0,
0,
0,
0,
0,
0,
0,
1,
0,
0,
0,
0,
0,
0,
0,
0,
0,
0,
0,
0,
0,
0,
0,
0,
0,
0,
0,
0,
0,
0,
0,
0,
0,
0,
0,
0,
0,
0,
0,
0,
0,
0,
0,
0,
0,
0,
0,
0,
0,
0,
0,
0,
0,
0,
0,
0,
0,
0,
0,
0,
0,
0,
0,
0,
#ENDOFDATA   :

File: GM IIIB K366[4][4].msa
#FORMAT      : EMSA/MAS Spectral Data File
#VERSION     : 1.0
#TITLE       : GM IIIB K366[4][all]
#DATE        : 10-SEP-2025
#TIME        : 18:28
#OWNER       : Unknown
#NPOINTS     : 4096
#NCOLUMNS    : 1
#XUNITS      : eV
#YUNITS      : counts
#DATATYPE    : Y
#XPERCHAN    : 9.99778
#OFFSET      : 1.69135
#BEAMKV      : 20
#SIGNALTYPE  : EDS
#ELEVANGLE   : 35
#AZIMANGLE   : 0
#LIVETIME    : 240.315
#REALTIME    : 267.745
#PROBECUR    : 1.22475
#TAUWIND     : 0
#TDEADLYR    : 0
#TACTLYR     : 0.045
#TALWIND     : 0.025
#CHOFFSET    : 0.0
#XLABEL      : Energy (eV)
#YLABEL      : Counts
#XPOSITION   : 8.4391
#YPOSITION   : 3.05838
#ZPOSITION   : 34.00159
#EDSDET      : SD
##SPECIMEN   : GM IIIB K366[4][all]
##D2STDCMP   : K366,(O:20.43),(Si:13.45),(Pb:66.12)
##DET_HASH   : 12273538-fd48-a23f-0a19-f1e6fa85caef
##CALIB_HASH : 6abaa72c-aa41-8738-0be9-f592914732f3
##WORKING    : 15.0 mm
##DET_NAME   : EDAX All
##DET_MODE   : MediumLE
#SPECTRUM    :
20,
593,
12081,
7512,
27957,
8451,
7063,
7673,
8366,
9572,
10391,
11323,
52594,
40014,
9255,
9614,
20500,
160422,
26824,
12832,
5672,
6133,
7712,
5814,
5319,
5645,
5383,
5504,
5271,
5506,
5394,
5154,
5500,
5227,
5100,
5060,
4782,
4741,
4696,
4518,
4576,
4286,
4364,
4206,
4155,
4178,
4173,
3875,
3734,
3840,
3670,
3527,
3428,
3577,
3269,
3141,
3155,
3152,
2923,
2940,
2861,
2754,
2709,
2686,
2589,
2864,
2941,
2397,
2299,
2298,
2149,
2136,
2088,
2048,
3073,
12347,
6796,
1953,
1721,
1719,
1707,
1645,
1547,
1483,
1530,
1398,
1475,
1493,
1438,
1933,
5519,
2390,
1343,
1235,
1032,
892,
910,
823,
777,
783,
742,
711,
727,
636,
680,
938,
819,
601,
559,
533,
459,
431,
425,
411,
386,
357,
323,
291,
268,
277,
261,
262,
249,
207,
202,
191,
181,
165,
147,
134,
129,
111,
123,
89,
64,
89,
84,
60,
48,
26,
39,
24,
20,
5,
6,
3,
5,
5,
6,
1,
4,
6,
1,
2,
1,
2,
4,
2,
1,
1,
1,
0,
1,
1,
1,
4,
1,
0,
1,
2,
0,
3,
2,
1,
0,
1,
0,
2,
0,
2,
0,
2,
2,
1,
1,
0,
0,
3,
0,
2,
1,
1,
0,
1,
1,
1,
0,
1,
0,
0,
1,
0,
1,
0,
0,
1,
0,
0,
0,
0,
0,
0,
0,
0,
0,
0,
0,
0,
0,
0,
1,
0,
0,
0,
0,
0,
0,
0,
0,
0,
0,
0,
1,
0,
0,
0,
0,
0,
0,
0,
0,
0,
0,
0,
0,
0,
0,
0,
0,
0,
0,
0,
0,
0,
0,
0,
0,
0,
0,
0,
0,
0,
0,
0,
0,
0,
0,
0,
0,
0,
0,
0,
0,
0,
0,
0,
0,
0,
0,
0,
0,
0,
0,
0,
0,
0,
0,
0,
0,
0,
0,
0,
0,
0,
#ENDOFDATA   :

File: GM IIIB K371[1][4].msa
#FORMAT      : EMSA/MAS Spectral Data File
#VERSION     : 1.0
#TITLE       : GM IIIB K371[1][all]
#DATE        : 10-SEP-2025
#TIME        : 14:41
#OWNER       : Unknown
#NPOINTS     : 4096
#NCOLUMNS    : 1
#XUNITS      : eV
#YUNITS      : counts
#DATATYPE    : Y
#XPERCHAN    : 9.99778
#OFFSET      : 1.69135
#BEAMKV      : 20
#SIGNALTYPE  : EDS
#ELEVANGLE   : 35
#AZIMANGLE   : 0
#LIVETIME    : 240.353
#REALTIME    : 262.12
#PROBECUR    : 1.22592
#TAUWIND     : 0
#TDEADLYR    : 0
#TACTLYR     : 0.045
#TALWIND     : 0.025
#CHOFFSET    : 0.0
#XLABEL      : Energy (eV)
#YLABEL      : Counts
#XPOSITION   : 11.55417
#YPOSITION   : 5.1865
#ZPOSITION   : 34.06144
#EDSDET      : SD
##SPECIMEN   : GM IIIB K371[1][all]
##D2STDCMP   : K371,(O:31.93),(Si:23.08),(Zn:3.07),(Ba:41.92)
##DET_HASH   : 12273538-fd48-a23f-0a19-f1e6fa85caef
##CALIB_HASH : 6abaa72c-aa41-8738-0be9-f592914732f3
##WORKING    : 15.0 mm
##DET_NAME   : EDAX All
##DET_MODE   : MediumLE
#SPECTRUM    :
25,
357,
8631,
10908,
72691,
5921,
5774,
11826,
4874,
4942,
5660,
6739,
58869,
29318,
4640,
4849,
5565,
4998,
4970,
5196,
5061,
4964,
4965,
4713,
4740,
4678,
4464,
4326,
6057,
4431,
4153,
8301,
69755,
4673,
16457,
22208,
5627,
13551,
3180,
4761,
4794,
3645,
3313,
2595,
2418,
2350,
2515,
2252,
2170,
2115,
2033,
1966,
1957,
2032,
1903,
1788,
1796,
1662,
1695,
1632,
1625,
2779,
3762,
1496,
1474,
1417,
1385,
1311,
1650,
1448,
1184,
1162,
1156,
1090,
1132,
979,
992,
929,
932,
894,
852,
925,
822,
798,
793,
742,
659,
681,
647,
615,
592,
578,
526,
552,
513,
474,
483,
406,
419,
440,
383,
368,
374,
346,
352,
322,
271,
253,
251,
259,
250,
214,
181,
178,
162,
170,
153,
169,
134,
122,
144,
107,
99,
115,
82,
72,
89,
74,
54,
74,
44,
64,
38,
37,
42,
23,
31,
26,
17,
15,
7,
7,
3,
1,
6,
5,
2,
3,
3,
0,
0,
0,
1,
3,
1,
0,
4,
0,
0,
1,
3,
1,
1,
0,
1,
1,
0,
1,
0,
0,
0,
1,
1,
0,
1,
1,
0,
1,
0,
0,
0,
1,
0,
0,
0,
0,
1,
0,
0,
0,
0,
0,
0,
0,
0,
0,
0,
0,
0,
0,
0,
0,
0,
0,
0,
0,
0,
0,
0,
0,
0,
0,
0,
0,
0,
0,
0,
0,
0,
0,
0,
0,
0,
0,
0,
0,
0,
0,
0,
0,
0,
0,
0,
0,
0,
0,
0,
0,
0,
0,
0,
0,
0,
0,
0,
0,
0,
0,
0,
0,
0,
0,
0,
0,
0,
0,
0,
0,
0,
0,
0,
0,
0,
0,
0,
0,
0,
0,
0,
0,
0,
0,
0,
0,
0,
0,
0,
0,
0,
0,
0,
0,
0,
0,
0,
0,
0,
0,
0,
0,
0,
0,
0,
0,
#ENDOFDATA   :