Folder: spex_quant/N132962/Quantification/20 keV/Glass Mount IIIB (part 6)

File: GM IIIB K523[1][4].msa
#FORMAT      : EMSA/MAS Spectral Data File
#VERSION     : 1.0
#TITLE       : GM IIIB K523[1][all]
#DATE        : 11-SEP-2025
#TIME        : 09:14
#OWNER       : Unknown
#NPOINTS     : 4096
#NCOLUMNS    : 1
#XUNITS      : eV
#YUNITS      : counts
#DATATYPE    : Y
#XPERCHAN    : 9.99778
#OFFSET      : 1.69135
#BEAMKV      : 20
#SIGNALTYPE  : EDS
#ELEVANGLE   : 35
#AZIMANGLE   : 0
#LIVETIME    : 240.244
#REALTIME    : 267.303
#PROBECUR    : 1.22303
#TAUWIND     : 0
#TDEADLYR    : 0
#TACTLYR     : 0.045
#TALWIND     : 0.025
#CHOFFSET    : 0.0
#XLABEL      : Energy (eV)
#YLABEL      : Counts
#XPOSITION   : 1.58051
#YPOSITION   : 9.70845
#ZPOSITION   : 34.00161
#EDSDET      : SD
##SPECIMEN   : GM IIIB K523[1][all]
##D2STDCMP   : K523,(O:20.71),(Mg:0.1),(Si:12.9),(P:0.25),(Ti:0.19),(Cr:0.21),(Ni:0.24),(Ge:0.29),(Zr:0.36),(Ba:0.55),(Eu:0.6),(Pb:63.41),(Th:0.1),(U:0.11)
##DET_HASH   : 12273538-fd48-a23f-0a19-f1e6fa85caef
##CALIB_HASH : 6abaa72c-aa41-8738-0be9-f592914732f3
##WORKING    : 15.0 mm
##DET_NAME   : EDAX All
##DET_MODE   : MediumLE
#SPECTRUM    :
10,
572,
12005,
7491,
28642,
8237,
7697,
7685,
9361,
10582,
10333,
11236,
50798,
38668,
10095,
10633,
19838,
151547,
25403,
12620,
5604,
6176,
7523,
5959,
5416,
5661,
5520,
5386,
5150,
5255,
5460,
5171,
7061,
5291,
5167,
5333,
4836,
4873,
4800,
4895,
4355,
4612,
4923,
4283,
4036,
4051,
4473,
3955,
3837,
3799,
3550,
3551,
3440,
4010,
3495,
3155,
3031,
3015,
2915,
2904,
2830,
2769,
2682,
2673,
2378,
2708,
2778,
2374,
2326,
2277,
2247,
2241,
2084,
2042,
3133,
11530,
6497,
1899,
1759,
1736,
1554,
1518,
1509,
1453,
1405,
1308,
1344,
1499,
1400,
1969,
5323,
2270,
1325,
1274,
948,
849,
838,
848,
813,
730,
733,
645,
691,
604,
611,
928,
787,
611,
567,
573,
497,
441,
417,
397,
373,
378,
318,
315,
285,
295,
270,
243,
261,
221,
212,
199,
169,
204,
147,
135,
135,
105,
112,
84,
75,
79,
69,
43,
37,
48,
35,
16,
9,
6,
5,
2,
4,
2,
4,
2,
1,
7,
5,
1,
4,
2,
0,
3,
1,
4,
3,
1,
0,
0,
2,
3,
1,
2,
0,
2,
1,
0,
2,
1,
3,
1,
2,
0,
3,
0,
2,
0,
1,
0,
0,
1,
1,
1,
0,
0,
2,
1,
0,
0,
1,
0,
0,
0,
1,
1,
0,
0,
0,
0,
0,
0,
0,
0,
1,
0,
0,
0,
0,
0,
0,
0,
0,
0,
0,
0,
0,
0,
0,
0,
0,
0,
0,
0,
0,
1,
0,
0,
0,
0,
0,
0,
0,
0,
0,
0,
0,
0,
0,
0,
0,
0,
0,
0,
0,
0,
0,
0,
0,
0,
0,
0,
0,
0,
0,
0,
0,
0,
0,
0,
0,
0,
0,
0,
0,
0,
0,
0,
0,
0,
0,
0,
0,
0,
0,
0,
0,
0,
0,
0,
0,
0,
0,
0,
0,
0,
0,
0,
0,
0,
#ENDOFDATA   :

File: GM IIIB K523[2][4].msa
#FORMAT      : EMSA/MAS Spectral Data File
#VERSION     : 1.0
#TITLE       : GM IIIB K523[2][all]
#DATE        : 11-SEP-2025
#TIME        : 09:15
#OWNER       : Unknown
#NPOINTS     : 4096
#NCOLUMNS    : 1
#XUNITS      : eV
#YUNITS      : counts
#DATATYPE    : Y
#XPERCHAN    : 9.99778
#OFFSET      : 1.69135
#BEAMKV      : 20
#SIGNALTYPE  : EDS
#ELEVANGLE   : 35
#AZIMANGLE   : 0
#LIVETIME    : 240.203
#REALTIME    : 267.2454
#PROBECUR    : 1.22303
#TAUWIND     : 0
#TDEADLYR    : 0
#TACTLYR     : 0.045
#TALWIND     : 0.025
#CHOFFSET    : 0.0
#XLABEL      : Energy (eV)
#YLABEL      : Counts
#XPOSITION   : 1.5912
#YPOSITION   : 9.71189
#ZPOSITION   : 34.00161
#EDSDET      : SD
##SPECIMEN   : GM IIIB K523[2][all]
##D2STDCMP   : K523,(O:20.71),(Mg:0.1),(Si:12.9),(P:0.25),(Ti:0.19),(Cr:0.21),(Ni:0.24),(Ge:0.29),(Zr:0.36),(Ba:0.55),(Eu:0.6),(Pb:63.41),(Th:0.1),(U:0.11)
##DET_HASH   : 12273538-fd48-a23f-0a19-f1e6fa85caef
##CALIB_HASH : 6abaa72c-aa41-8738-0be9-f592914732f3
##WORKING    : 15.0 mm
##DET_NAME   : EDAX All
##DET_MODE   : MediumLE
#SPECTRUM    :
20,
563,
11661,
7532,
28567,
8041,
7818,
7769,
9266,
10627,
10193,
11289,
50711,
38373,
10168,
10356,
19664,
151725,
25539,
12438,
5683,
6323,
7879,
6019,
5528,
5420,
5415,
5341,
5137,
5421,
5277,
5259,
6966,
5200,
5194,
5222,
4879,
4733,
4782,
4975,
4459,
4551,
4818,
4239,
4087,
4169,
4666,
3884,
3760,
3729,
3672,
3424,
3347,
3921,
3537,
3229,
3052,
2952,
2915,
2972,
2789,
2725,
2704,
2622,
2536,
2867,
2852,
2360,
2312,
2276,
2402,
2214,
2040,
2034,
3109,
11975,
6438,
1826,
1792,
1761,
1574,
1583,
1463,
1373,
1436,
1318,
1402,
1442,
1435,
1943,
5189,
2234,
1226,
1254,
985,
910,
880,
821,
810,
771,
743,
727,
690,
668,
624,
853,
754,
610,
629,
501,
447,
411,
397,
375,
376,
337,
328,
324,
281,
280,
304,
242,
244,
207,
188,
197,
174,
156,
139,
135,
118,
127,
113,
91,
89,
79,
66,
60,
46,
32,
29,
14,
13,
8,
2,
5,
3,
3,
5,
5,
3,
6,
2,
4,
2,
5,
0,
5,
2,
5,
0,
1,
0,
1,
2,
1,
0,
1,
2,
1,
1,
0,
2,
0,
2,
1,
0,
1,
2,
1,
0,
0,
1,
0,
1,
0,
0,
1,
3,
0,
0,
0,
0,
0,
2,
1,
0,
0,
2,
0,
0,
0,
0,
0,
2,
0,
1,
0,
0,
0,
1,
0,
0,
0,
0,
0,
1,
0,
0,
0,
0,
0,
0,
0,
0,
0,
0,
0,
0,
0,
0,
0,
0,
0,
0,
0,
0,
0,
0,
0,
0,
0,
0,
0,
0,
0,
0,
0,
0,
0,
0,
0,
0,
0,
0,
0,
0,
0,
0,
0,
0,
0,
0,
0,
0,
0,
0,
0,
0,
0,
0,
0,
0,
0,
0,
0,
0,
0,
0,
0,
0,
0,
0,
0,
0,
0,
0,
0,
0,
0,
0,
0,
0,
0,
#ENDOFDATA   :

File: GM IIIB K523[3][4].msa
#FORMAT      : EMSA/MAS Spectral Data File
#VERSION     : 1.0
#TITLE       : GM IIIB K523[3][all]
#DATE        : 11-SEP-2025
#TIME        : 09:16
#OWNER       : Unknown
#NPOINTS     : 4096
#NCOLUMNS    : 1
#XUNITS      : eV
#YUNITS      : counts
#DATATYPE    : Y
#XPERCHAN    : 9.99778
#OFFSET      : 1.69135
#BEAMKV      : 20
#SIGNALTYPE  : EDS
#ELEVANGLE   : 35
#AZIMANGLE   : 0
#LIVETIME    : 240.228
#REALTIME    : 267.291
#PROBECUR    : 1.22303
#TAUWIND     : 0
#TDEADLYR    : 0
#TACTLYR     : 0.045
#TALWIND     : 0.025
#CHOFFSET    : 0.0
#XLABEL      : Energy (eV)
#YLABEL      : Counts
#XPOSITION   : 1.57534
#YPOSITION   : 9.64171
#ZPOSITION   : 34.00161
#EDSDET      : SD
##SPECIMEN   : GM IIIB K523[3][all]
##D2STDCMP   : K523,(O:20.71),(Mg:0.1),(Si:12.9),(P:0.25),(Ti:0.19),(Cr:0.21),(Ni:0.24),(Ge:0.29),(Zr:0.36),(Ba:0.55),(Eu:0.6),(Pb:63.41),(Th:0.1),(U:0.11)
##DET_HASH   : 12273538-fd48-a23f-0a19-f1e6fa85caef
##CALIB_HASH : 6abaa72c-aa41-8738-0be9-f592914732f3
##WORKING    : 15.0 mm
##DET_NAME   : EDAX All
##DET_MODE   : MediumLE
#SPECTRUM    :
17,
568,
11637,
7635,
28308,
8108,
7837,
7869,
9212,
10602,
10186,
11229,
50548,
38564,
10122,
10542,
19813,
151978,
25495,
12503,
5671,
6253,
7573,
5777,
5435,
5606,
5387,
5487,
5175,
5488,
5344,
5146,
7191,
5108,
5287,
5327,
4753,
4875,
4825,
4929,
4377,
4521,
4872,
4170,
4015,
4112,
4494,
3872,
3929,
3725,
3472,
3500,
3395,
3919,
3436,
3286,
3096,
3092,
2893,
3049,
2799,
2677,
2653,
2638,
2495,
2866,
2887,
2400,
2396,
2318,
2309,
2269,
2039,
2056,
3137,
11656,
6366,
1882,
1772,
1696,
1668,
1609,
1484,
1504,
1338,
1408,
1393,
1413,
1402,
1926,
5324,
2233,
1220,
1257,
957,
927,
903,
863,
813,
805,
751,
713,
704,
633,
602,
936,
783,
528,
595,
547,
440,
440,
403,
380,
350,
327,
311,
297,
338,
275,
269,
258,
229,
219,
203,
179,
158,
161,
148,
151,
114,
93,
91,
80,
84,
79,
52,
48,
47,
33,
25,
22,
13,
2,
6,
5,
6,
3,
3,
0,
5,
2,
2,
4,
1,
2,
2,
3,
3,
3,
1,
1,
0,
2,
6,
1,
3,
0,
0,
1,
4,
3,
0,
3,
3,
1,
2,
0,
1,
2,
1,
0,
0,
2,
1,
2,
0,
2,
1,
0,
0,
0,
0,
1,
0,
0,
0,
0,
0,
1,
0,
0,
0,
0,
0,
0,
1,
1,
0,
0,
1,
1,
0,
2,
0,
0,
0,
0,
0,
1,
0,
0,
0,
0,
0,
0,
0,
0,
0,
0,
0,
0,
0,
0,
0,
0,
0,
0,
0,
0,
0,
0,
0,
0,
0,
0,
0,
0,
0,
0,
0,
0,
0,
0,
0,
0,
0,
0,
0,
0,
0,
0,
0,
0,
0,
0,
0,
0,
0,
0,
0,
0,
0,
0,
0,
0,
0,
0,
0,
0,
0,
0,
0,
0,
0,
0,
0,
0,
0,
0,
0,
0,
0,
0,
#ENDOFDATA   :

File: GM IIIB K523[6][4].msa
#FORMAT      : EMSA/MAS Spectral Data File
#VERSION     : 1.0
#TITLE       : GM IIIB K523[6][all]
#DATE        : 11-SEP-2025
#TIME        : 09:20
#OWNER       : Unknown
#NPOINTS     : 4096
#NCOLUMNS    : 1
#XUNITS      : eV
#YUNITS      : counts
#DATATYPE    : Y
#XPERCHAN    : 9.99778
#OFFSET      : 1.69135
#BEAMKV      : 20
#SIGNALTYPE  : EDS
#ELEVANGLE   : 35
#AZIMANGLE   : 0
#LIVETIME    : 240.233
#REALTIME    : 267.305
#PROBECUR    : 1.22303
#TAUWIND     : 0
#TDEADLYR    : 0
#TACTLYR     : 0.045
#TALWIND     : 0.025
#CHOFFSET    : 0.0
#XLABEL      : Energy (eV)
#YLABEL      : Counts
#XPOSITION   : 1.65562
#YPOSITION   : 9.68048
#ZPOSITION   : 34.00161
#EDSDET      : SD
##SPECIMEN   : GM IIIB K523[6][all]
##D2STDCMP   : K523,(O:20.71),(Mg:0.1),(Si:12.9),(P:0.25),(Ti:0.19),(Cr:0.21),(Ni:0.24),(Ge:0.29),(Zr:0.36),(Ba:0.55),(Eu:0.6),(Pb:63.41),(Th:0.1),(U:0.11)
##DET_HASH   : 12273538-fd48-a23f-0a19-f1e6fa85caef
##CALIB_HASH : 6abaa72c-aa41-8738-0be9-f592914732f3
##WORKING    : 15.0 mm
##DET_NAME   : EDAX All
##DET_MODE   : MediumLE
#SPECTRUM    :
21,
569,
11963,
7715,
28585,
7968,
7816,
7918,
9019,
10720,
10295,
11176,
50594,
38475,
10132,
10538,
19849,
152515,
25603,
12702,
5601,
6184,
7675,
5864,
5507,
5698,
5398,
5356,
5153,
5268,
5443,
5147,
7019,
5164,
5298,
5263,
4847,
4897,
4921,
4936,
4345,
4483,
4862,
4167,
4072,
4081,
4541,
3885,
3678,
3698,
3659,
3375,
3453,
3840,
3524,
3159,
3147,
3005,
2971,
2947,
2817,
2732,
2612,
2569,
2598,
2812,
2876,
2330,
2307,
2307,
2260,
2238,
2094,
1974,
3170,
11691,
6423,
1855,
1738,
1750,
1590,
1585,
1480,
1418,
1368,
1311,
1356,
1506,
1345,
2113,
5365,
2210,
1285,
1199,
998,
830,
868,
847,
737,
722,
700,
696,
665,
657,
655,
915,
778,
569,
585,
557,
501,
444,
452,
406,
362,
356,
320,
308,
266,
305,
269,
269,
217,
203,
214,
194,
182,
158,
147,
137,
123,
119,
97,
81,
83,
61,
73,
47,
49,
39,
29,
18,
10,
8,
2,
6,
4,
3,
0,
4,
4,
4,
4,
2,
3,
2,
2,
1,
1,
1,
2,
0,
3,
1,
5,
2,
2,
2,
1,
1,
0,
1,
0,
4,
1,
0,
0,
2,
1,
1,
1,
0,
1,
0,
0,
0,
0,
1,
1,
0,
0,
1,
0,
0,
0,
2,
1,
0,
0,
1,
1,
1,
0,
0,
2,
0,
0,
0,
0,
0,
0,
0,
0,
0,
0,
1,
0,
0,
0,
0,
0,
0,
0,
0,
0,
0,
0,
0,
0,
0,
0,
0,
0,
0,
1,
0,
0,
0,
0,
0,
0,
0,
0,
0,
0,
0,
0,
0,
0,
0,
0,
0,
0,
0,
0,
0,
0,
0,
0,
0,
0,
0,
0,
0,
0,
0,
0,
0,
0,
0,
0,
0,
0,
0,
0,
0,
0,
0,
0,
0,
0,
0,
0,
0,
0,
0,
0,
0,
0,
0,
0,
0,
0,
0,
#ENDOFDATA   :

File: GM IIIB K873[1][4].msa
#FORMAT      : EMSA/MAS Spectral Data File
#VERSION     : 1.0
#TITLE       : GM IIIB K873[1][all]
#DATE        : 10-SEP-2025
#TIME        : 15:28
#OWNER       : Unknown
#NPOINTS     : 4096
#NCOLUMNS    : 1
#XUNITS      : eV
#YUNITS      : counts
#DATATYPE    : Y
#XPERCHAN    : 9.99778
#OFFSET      : 1.69135
#BEAMKV      : 20
#SIGNALTYPE  : EDS
#ELEVANGLE   : 35
#AZIMANGLE   : 0
#LIVETIME    : 240.189
#REALTIME    : 262.497
#PROBECUR    : 1.22616
#TAUWIND     : 0
#TDEADLYR    : 0
#TACTLYR     : 0.045
#TALWIND     : 0.025
#CHOFFSET    : 0.0
#XLABEL      : Energy (eV)
#YLABEL      : Counts
#XPOSITION   : -2.46939
#YPOSITION   : 9.58993
#ZPOSITION   : 34.06144
#EDSDET      : SD
##SPECIMEN   : GM IIIB K873[1][all]
##D2STDCMP   : K873,(O:25.46),(Al:0.26),(Si:11.45),(Mn:0.32),(Ge:17.0),(Ba:21.94),(Ce:0.41),(Ta:0.41),(Pb:22.74)
##DET_HASH   : 12273538-fd48-a23f-0a19-f1e6fa85caef
##CALIB_HASH : 6abaa72c-aa41-8738-0be9-f592914732f3
##WORKING    : 15.0 mm
##DET_NAME   : EDAX All
##DET_MODE   : MediumLE
#SPECTRUM    :
23,
412,
9076,
8828,
44701,
6963,
6640,
8332,
15104,
21739,
6385,
7720,
34584,
21775,
6227,
6282,
9831,
49159,
11673,
8600,
5652,
5714,
6309,
5344,
5270,
5167,
4972,
5070,
5910,
4992,
4880,
6819,
38880,
4965,
11189,
14217,
5135,
9405,
4000,
4605,
4762,
4027,
4480,
3404,
3095,
3189,
3310,
2954,
2771,
2824,
2726,
2674,
2731,
2694,
2445,
2446,
2309,
2323,
2503,
2231,
2092,
2055,
2035,
1907,
2045,
1951,
2000,
1874,
1727,
1806,
8210,
8098,
1734,
1469,
1725,
4637,
2762,
1401,
2379,
1945,
1208,
1182,
1080,
1008,
1032,
953,
908,
949,
1025,
1141,
2110,
1189,
800,
747,
699,
607,
657,
596,
568,
549,
529,
511,
521,
438,
420,
552,
454,
380,
361,
313,
313,
281,
291,
256,
268,
258,
233,
226,
214,
191,
202,
171,
156,
144,
132,
122,
100,
93,
96,
95,
83,
77,
72,
58,
48,
58,
47,
28,
40,
13,
19,
14,
9,
2,
2,
0,
2,
3,
1,
0,
2,
0,
1,
4,
1,
1,
2,
5,
1,
2,
1,
0,
2,
3,
0,
1,
0,
0,
0,
0,
3,
0,
0,
0,
0,
0,
1,
1,
1,
0,
1,
0,
0,
1,
0,
1,
0,
1,
1,
1,
0,
0,
0,
0,
0,
0,
0,
0,
0,
1,
0,
0,
0,
0,
0,
0,
0,
0,
0,
0,
0,
0,
0,
0,
0,
0,
0,
0,
0,
0,
0,
0,
0,
0,
0,
0,
0,
0,
0,
0,
0,
0,
0,
0,
0,
0,
0,
0,
0,
0,
0,
0,
0,
0,
0,
0,
0,
0,
0,
0,
0,
0,
0,
0,
0,
0,
0,
0,
0,
0,
0,
0,
0,
0,
0,
0,
0,
0,
0,
0,
0,
0,
0,
0,
0,
0,
0,
0,
0,
0,
0,
0,
0,
0,
0,
0,
0,
0,
0,
0,
0,
0,
0,
0,
#ENDOFDATA   :

File: GM IIIB K873[4][4].msa
#FORMAT      : EMSA/MAS Spectral Data File
#VERSION     : 1.0
#TITLE       : GM IIIB K873[4][all]
#DATE        : 10-SEP-2025
#TIME        : 15:32
#OWNER       : Unknown
#NPOINTS     : 4096
#NCOLUMNS    : 1
#XUNITS      : eV
#YUNITS      : counts
#DATATYPE    : Y
#XPERCHAN    : 9.99778
#OFFSET      : 1.69135
#BEAMKV      : 20
#SIGNALTYPE  : EDS
#ELEVANGLE   : 35
#AZIMANGLE   : 0
#LIVETIME    : 240.1939
#REALTIME    : 262.511
#PROBECUR    : 1.22616
#TAUWIND     : 0
#TDEADLYR    : 0
#TACTLYR     : 0.045
#TALWIND     : 0.025
#CHOFFSET    : 0.0
#XLABEL      : Energy (eV)
#YLABEL      : Counts
#XPOSITION   : -2.51374
#YPOSITION   : 9.59916
#ZPOSITION   : 34.06144
#EDSDET      : SD
##SPECIMEN   : GM IIIB K873[4][all]
##D2STDCMP   : K873,(O:25.46),(Al:0.26),(Si:11.45),(Mn:0.32),(Ge:17.0),(Ba:21.94),(Ce:0.41),(Ta:0.41),(Pb:22.74)
##DET_HASH   : 12273538-fd48-a23f-0a19-f1e6fa85caef
##CALIB_HASH : 6abaa72c-aa41-8738-0be9-f592914732f3
##WORKING    : 15.0 mm
##DET_NAME   : EDAX All
##DET_MODE   : MediumLE
#SPECTRUM    :
23,
405,
9247,
8631,
44503,
6950,
6636,
8400,
15120,
21569,
6340,
7613,
33925,
21683,
6264,
6455,
10014,
49187,
11451,
8533,
5431,
5773,
6280,
5272,
5194,
5201,
4900,
4999,
5734,
4900,
4769,
6800,
38514,
4993,
10879,
14317,
5178,
9478,
4088,
4750,
4679,
4218,
4609,
3390,
3167,
3183,
3372,
2978,
2927,
2714,
2807,
2609,
2491,
2580,
2509,
2334,
2246,
2375,
2456,
2279,
2059,
2010,
2004,
1922,
1887,
1936,
2030,
1855,
1719,
1898,
8259,
8264,
1670,
1443,
1764,
4788,
2802,
1470,
2430,
1942,
1163,
1121,
1096,
1040,
978,
913,
956,
947,
921,
1115,
2017,
1164,
804,
749,
652,
628,
641,
581,
566,
506,
524,
478,
443,
484,
485,
519,
457,
375,
410,
319,
313,
313,
263,
272,
258,
227,
215,
189,
209,
189,
179,
160,
164,
136,
133,
134,
122,
116,
99,
99,
75,
68,
66,
65,
62,
42,
39,
39,
30,
8,
12,
18,
5,
4,
1,
1,
3,
3,
2,
3,
2,
2,
2,
3,
1,
0,
0,
2,
2,
3,
1,
2,
4,
1,
0,
3,
0,
3,
1,
0,
0,
2,
0,
0,
1,
0,
0,
0,
1,
0,
0,
0,
1,
0,
0,
0,
1,
0,
0,
0,
0,
0,
0,
0,
0,
0,
1,
0,
1,
0,
0,
0,
0,
0,
1,
1,
1,
0,
0,
0,
0,
0,
0,
0,
0,
0,
0,
0,
0,
0,
0,
1,
0,
0,
0,
0,
0,
0,
0,
0,
0,
0,
0,
0,
0,
0,
0,
0,
0,
0,
0,
0,
0,
0,
0,
0,
0,
0,
0,
0,
0,
0,
0,
0,
0,
0,
0,
0,
0,
0,
0,
0,
0,
0,
0,
0,
0,
0,
0,
0,
0,
0,
0,
0,
0,
0,
0,
0,
0,
0,
0,
0,
0,
0,
0,
0,
0,
0,
0,
0,
0,
0,
0,
0,
#ENDOFDATA   :

File: GM IIIB K919[0][4].msa
#FORMAT      : EMSA/MAS Spectral Data File
#VERSION     : 1.0
#TITLE       : GM IIIB K919[0][all]
#DATE        : 10-SEP-2025
#TIME        : 16:02
#OWNER       : Unknown
#NPOINTS     : 4096
#NCOLUMNS    : 1
#XUNITS      : eV
#YUNITS      : counts
#DATATYPE    : Y
#XPERCHAN    : 9.99778
#OFFSET      : 1.69135
#BEAMKV      : 20
#SIGNALTYPE  : EDS
#ELEVANGLE   : 35
#AZIMANGLE   : 0
#LIVETIME    : 239.8969
#REALTIME    : 261.298
#PROBECUR    : 1.22368
#TAUWIND     : 0
#TDEADLYR    : 0
#TACTLYR     : 0.045
#TALWIND     : 0.025
#CHOFFSET    : 0.0
#XLABEL      : Energy (eV)
#YLABEL      : Counts
#XPOSITION   : 13.80211
#YPOSITION   : 11.98048
#ZPOSITION   : 34.06144
#EDSDET      : SD
##SPECIMEN   : GM IIIB K919[0][all]
##D2STDCMP   : K919,(O:31.86),(Si:20.1),(Cr:0.68),(Mn:1.9),(Fe:2.1),(Co:2.13),(Ni:2.36),(Cu:2.4),(Ba:34.03),(Ce:2.44)
##DET_HASH   : 12273538-fd48-a23f-0a19-f1e6fa85caef
##CALIB_HASH : 6abaa72c-aa41-8738-0be9-f592914732f3
##WORKING    : 15.0 mm
##DET_NAME   : EDAX All
##DET_MODE   : MediumLE
#SPECTRUM    :
19,
347,
8057,
11133,
72858,
10462,
10506,
7556,
4667,
4981,
5440,
6505,
52190,
26623,
4710,
4895,
5407,
5072,
5027,
5241,
5107,
4990,
4914,
4641,
4572,
4638,
4497,
4211,
5524,
4404,
4107,
7567,
57587,
4448,
14940,
20485,
5188,
12108,
4850,
5839,
4908,
3708,
7882,
3335,
2465,
3530,
6406,
2298,
2193,
4350,
4107,
2203,
1975,
4723,
3303,
2177,
1806,
3648,
2994,
2061,
1597,
1493,
1503,
1606,
1660,
1297,
1253,
1252,
1191,
1215,
1179,
1090,
1117,
1017,
1060,
995,
943,
932,
913,
843,
829,
807,
850,
751,
714,
721,
741,
621,
709,
572,
586,
565,
549,
505,
458,
449,
439,
405,
410,
383,
367,
347,
384,
312,
288,
268,
284,
271,
240,
231,
236,
193,
170,
202,
199,
183,
154,
161,
113,
131,
123,
85,
97,
103,
86,
74,
68,
73,
75,
42,
47,
58,
38,
39,
34,
28,
22,
26,
15,
13,
11,
3,
3,
4,
3,
2,
1,
1,
1,
1,
1,
2,
3,
0,
0,
2,
1,
0,
0,
0,
1,
1,
1,
0,
1,
0,
0,
0,
0,
0,
0,
0,
0,
0,
0,
0,
0,
1,
0,
1,
0,
1,
1,
1,
0,
0,
0,
0,
1,
0,
0,
0,
0,
0,
0,
0,
0,
0,
0,
1,
0,
2,
0,
0,
0,
0,
0,
0,
0,
0,
0,
0,
0,
0,
0,
0,
0,
0,
0,
0,
0,
0,
0,
0,
0,
0,
0,
0,
0,
0,
0,
0,
0,
0,
0,
0,
0,
0,
0,
0,
0,
0,
0,
0,
0,
0,
0,
0,
0,
0,
0,
0,
0,
0,
0,
0,
0,
0,
0,
0,
0,
0,
0,
0,
0,
0,
0,
0,
0,
0,
0,
0,
0,
0,
0,
0,
0,
0,
0,
0,
0,
0,
0,
0,
0,
0,
0,
0,
0,
0,
0,
0,
0,
0,
#ENDOFDATA   :

File: GM IIIB K919[1][4].msa
#FORMAT      : EMSA/MAS Spectral Data File
#VERSION     : 1.0
#TITLE       : GM IIIB K919[1][all]
#DATE        : 10-SEP-2025
#TIME        : 16:03
#OWNER       : Unknown
#NPOINTS     : 4096
#NCOLUMNS    : 1
#XUNITS      : eV
#YUNITS      : counts
#DATATYPE    : Y
#XPERCHAN    : 9.99778
#OFFSET      : 1.69135
#BEAMKV      : 20
#SIGNALTYPE  : EDS
#ELEVANGLE   : 35
#AZIMANGLE   : 0
#LIVETIME    : 240.076
#REALTIME    : 261.5415
#PROBECUR    : 1.22368
#TAUWIND     : 0
#TDEADLYR    : 0
#TACTLYR     : 0.045
#TALWIND     : 0.025
#CHOFFSET    : 0.0
#XLABEL      : Energy (eV)
#YLABEL      : Counts
#XPOSITION   : 13.83918
#YPOSITION   : 11.95782
#ZPOSITION   : 34.06144
#EDSDET      : SD
##SPECIMEN   : GM IIIB K919[1][all]
##D2STDCMP   : K919,(O:31.86),(Si:20.1),(Cr:0.68),(Mn:1.9),(Fe:2.1),(Co:2.13),(Ni:2.36),(Cu:2.4),(Ba:34.03),(Ce:2.44)
##DET_HASH   : 12273538-fd48-a23f-0a19-f1e6fa85caef
##CALIB_HASH : 6abaa72c-aa41-8738-0be9-f592914732f3
##WORKING    : 15.0 mm
##DET_NAME   : EDAX All
##DET_MODE   : MediumLE
#SPECTRUM    :
31,
330,
7816,
11147,
73465,
10530,
10552,
7553,
4646,
4938,
5498,
6161,
52545,
26547,
4680,
4816,
5301,
5032,
4985,
5131,
5009,
5034,
5003,
4749,
4612,
4648,
4543,
4306,
5571,
4513,
4057,
7463,
57455,
4532,
14980,
20363,
5245,
12073,
4814,
5954,
4869,
3709,
8071,
3251,
2378,
3610,
6297,
2447,
2062,
4415,
4097,
2201,
1945,
4705,
3262,
2105,
1737,
3675,
3021,
2040,
1588,
1498,
1428,
1598,
1589,
1400,
1297,
1292,
1277,
1156,
1252,
1103,
1109,
1090,
1004,
1021,
978,
968,
920,
914,
849,
786,
845,
742,
731,
714,
627,
655,
650,
577,
590,
550,
528,
495,
476,
482,
428,
437,
406,
428,
356,
361,
335,
307,
344,
312,
259,
266,
240,
226,
216,
213,
193,
189,
187,
188,
182,
144,
120,
139,
128,
111,
108,
103,
94,
82,
74,
72,
60,
60,
47,
44,
52,
43,
34,
36,
32,
23,
17,
13,
11,
5,
2,
2,
1,
3,
1,
0,
2,
2,
2,
0,
2,
0,
1,
2,
1,
1,
1,
1,
0,
0,
0,
0,
1,
1,
0,
0,
2,
0,
0,
0,
0,
0,
0,
0,
1,
0,
1,
0,
0,
0,
2,
0,
1,
0,
0,
0,
0,
0,
0,
1,
0,
0,
0,
0,
0,
0,
0,
0,
0,
0,
0,
0,
0,
0,
0,
0,
0,
0,
1,
0,
0,
0,
0,
0,
0,
0,
0,
0,
0,
0,
0,
0,
0,
0,
0,
0,
0,
0,
0,
0,
0,
0,
0,
0,
0,
0,
0,
1,
0,
0,
0,
0,
0,
0,
0,
0,
0,
0,
0,
0,
0,
0,
0,
0,
0,
0,
0,
0,
0,
0,
0,
0,
0,
0,
0,
0,
0,
0,
0,
0,
0,
0,
0,
0,
0,
0,
0,
0,
0,
0,
0,
0,
0,
0,
0,
0,
0,
0,
0,
0,
0,
0,
#ENDOFDATA   :

File: GM IIIB K919[2][4].msa
#FORMAT      : EMSA/MAS Spectral Data File
#VERSION     : 1.0
#TITLE       : GM IIIB K919[2][all]
#DATE        : 10-SEP-2025
#TIME        : 16:05
#OWNER       : Unknown
#NPOINTS     : 4096
#NCOLUMNS    : 1
#XUNITS      : eV
#YUNITS      : counts
#DATATYPE    : Y
#XPERCHAN    : 9.99778
#OFFSET      : 1.69135
#BEAMKV      : 20
#SIGNALTYPE  : EDS
#ELEVANGLE   : 35
#AZIMANGLE   : 0
#LIVETIME    : 239.895
#REALTIME    : 261.28
#PROBECUR    : 1.22368
#TAUWIND     : 0
#TDEADLYR    : 0
#TACTLYR     : 0.045
#TALWIND     : 0.025
#CHOFFSET    : 0.0
#XLABEL      : Energy (eV)
#YLABEL      : Counts
#XPOSITION   : 13.82476
#YPOSITION   : 12.0299
#ZPOSITION   : 34.06144
#EDSDET      : SD
##SPECIMEN   : GM IIIB K919[2][all]
##D2STDCMP   : K919,(O:31.86),(Si:20.1),(Cr:0.68),(Mn:1.9),(Fe:2.1),(Co:2.13),(Ni:2.36),(Cu:2.4),(Ba:34.03),(Ce:2.44)
##DET_HASH   : 12273538-fd48-a23f-0a19-f1e6fa85caef
##CALIB_HASH : 6abaa72c-aa41-8738-0be9-f592914732f3
##WORKING    : 15.0 mm
##DET_NAME   : EDAX All
##DET_MODE   : MediumLE
#SPECTRUM    :
26,
323,
8244,
11011,
72750,
10687,
10711,
7747,
4727,
4932,
5340,
6352,
52317,
26666,
4736,
4806,
5570,
4940,
4881,
5098,
5029,
4925,
4940,
4728,
4538,
4593,
4575,
4262,
5695,
4421,
4101,
7539,
57917,
4598,
14975,
20131,
5076,
12201,
4784,
5921,
4996,
3828,
7932,
3310,
2459,
3571,
6281,
2543,
2097,
4286,
4129,
2177,
1990,
4610,
3315,
2100,
1778,
3523,
2924,
2122,
1642,
1507,
1509,
1613,
1523,
1316,
1250,
1290,
1233,
1165,
1142,
1123,
1095,
1089,
996,
990,
987,
922,
928,
843,
824,
833,
790,
736,
675,
690,
676,
605,
656,
608,
576,
551,
522,
493,
482,
433,
452,
452,
412,
376,
374,
346,
346,
300,
301,
301,
284,
230,
257,
233,
223,
197,
206,
189,
160,
153,
143,
156,
140,
144,
120,
97,
114,
91,
84,
78,
87,
87,
50,
48,
56,
44,
31,
40,
30,
37,
28,
27,
17,
8,
8,
4,
5,
4,
0,
1,
0,
0,
0,
1,
2,
1,
0,
2,
1,
1,
1,
0,
1,
0,
0,
1,
0,
0,
0,
0,
0,
0,
1,
0,
0,
1,
0,
0,
1,
0,
0,
0,
0,
0,
0,
0,
0,
0,
0,
0,
0,
0,
0,
0,
0,
0,
0,
0,
0,
1,
0,
0,
0,
0,
0,
0,
0,
0,
0,
0,
0,
0,
0,
0,
0,
0,
0,
0,
0,
0,
0,
0,
0,
0,
0,
0,
0,
0,
0,
0,
0,
0,
0,
0,
0,
0,
0,
0,
0,
0,
0,
0,
0,
0,
0,
0,
0,
0,
0,
0,
0,
0,
0,
0,
0,
0,
0,
0,
0,
0,
0,
0,
0,
0,
0,
0,
0,
0,
0,
0,
0,
0,
0,
0,
0,
0,
0,
0,
0,
0,
0,
0,
0,
0,
0,
0,
0,
0,
0,
0,
0,
0,
0,
0,
0,
0,
0,
0,
#ENDOFDATA   :

File: GM IIIB K919[4][4].msa
#FORMAT      : EMSA/MAS Spectral Data File
#VERSION     : 1.0
#TITLE       : GM IIIB K919[4][all]
#DATE        : 10-SEP-2025
#TIME        : 16:07
#OWNER       : Unknown
#NPOINTS     : 4096
#NCOLUMNS    : 1
#XUNITS      : eV
#YUNITS      : counts
#DATATYPE    : Y
#XPERCHAN    : 9.99778
#OFFSET      : 1.69135
#BEAMKV      : 20
#SIGNALTYPE  : EDS
#ELEVANGLE   : 35
#AZIMANGLE   : 0
#LIVETIME    : 239.997
#REALTIME    : 261.42
#PROBECUR    : 1.22413
#TAUWIND     : 0
#TDEADLYR    : 0
#TACTLYR     : 0.045
#TALWIND     : 0.025
#CHOFFSET    : 0.0
#XLABEL      : Energy (eV)
#YLABEL      : Counts
#XPOSITION   : 13.83505
#YPOSITION   : 12.02989
#ZPOSITION   : 34.06144
#EDSDET      : SD
##SPECIMEN   : GM IIIB K919[4][all]
##D2STDCMP   : K919,(O:31.86),(Si:20.1),(Cr:0.68),(Mn:1.9),(Fe:2.1),(Co:2.13),(Ni:2.36),(Cu:2.4),(Ba:34.03),(Ce:2.44)
##DET_HASH   : 12273538-fd48-a23f-0a19-f1e6fa85caef
##CALIB_HASH : 6abaa72c-aa41-8738-0be9-f592914732f3
##WORKING    : 15.0 mm
##DET_NAME   : EDAX All
##DET_MODE   : MediumLE
#SPECTRUM    :
23,
334,
8382,
11149,
73021,
10527,
10509,
7633,
4732,
4748,
5500,
6331,
52365,
26583,
4758,
4823,
5432,
5082,
5162,
5160,
4955,
4919,
5041,
4703,
4603,
4505,
4551,
4236,
5564,
4380,
4056,
7555,
57379,
4406,
14940,
20547,
5075,
12192,
4715,
5882,
4986,
3702,
7848,
3189,
2430,
3533,
6503,
2476,
2143,
4374,
4056,
2185,
2002,
4599,
3381,
2103,
1742,
3582,
3005,
2082,
1595,
1461,
1445,
1554,
1567,
1314,
1331,
1252,
1206,
1201,
1149,
1110,
1093,
1056,
1028,
959,
974,
904,
924,
917,
835,
781,
760,
732,
708,
702,
632,
626,
606,
648,
553,
579,
564,
514,
465,
443,
446,
428,
389,
382,
361,
351,
331,
301,
311,
300,
285,
275,
248,
222,
209,
209,
200,
169,
177,
184,
152,
161,
138,
133,
132,
133,
87,
86,
92,
102,
82,
87,
59,
62,
53,
47,
48,
38,
40,
27,
30,
17,
21,
16,
12,
7,
2,
5,
1,
0,
2,
1,
3,
0,
1,
0,
0,
0,
2,
1,
2,
0,
0,
0,
0,
0,
1,
0,
1,
0,
2,
0,
1,
0,
0,
0,
0,
0,
0,
0,
1,
0,
0,
0,
0,
0,
0,
1,
0,
0,
2,
0,
0,
0,
0,
1,
2,
0,
0,
1,
0,
0,
0,
0,
0,
0,
0,
0,
0,
0,
0,
0,
1,
0,
0,
0,
0,
0,
0,
0,
0,
0,
0,
0,
0,
0,
0,
0,
0,
0,
0,
0,
0,
0,
0,
0,
0,
0,
0,
0,
0,
0,
0,
0,
0,
0,
0,
0,
0,
0,
0,
0,
0,
0,
0,
0,
0,
0,
0,
0,
0,
0,
0,
0,
0,
0,
0,
0,
0,
0,
0,
0,
0,
0,
0,
0,
0,
0,
0,
0,
0,
0,
0,
0,
0,
0,
0,
0,
0,
0,
0,
0,
0,
0,
0,
0,
0,
0,
#ENDOFDATA   :

File: GM IIIB K961[3][4].msa
#FORMAT      : EMSA/MAS Spectral Data File
#VERSION     : 1.0
#TITLE       : GM IIIB K961[3][all]
#DATE        : 11-SEP-2025
#TIME        : 09:57
#OWNER       : Unknown
#NPOINTS     : 4096
#NCOLUMNS    : 1
#XUNITS      : eV
#YUNITS      : counts
#DATATYPE    : Y
#XPERCHAN    : 9.99778
#OFFSET      : 1.69135
#BEAMKV      : 20
#SIGNALTYPE  : EDS
#ELEVANGLE   : 35
#AZIMANGLE   : 0
#LIVETIME    : 240.144
#REALTIME    : 259.1838
#PROBECUR    : 1.22337
#TAUWIND     : 0
#TDEADLYR    : 0
#TACTLYR     : 0.045
#TALWIND     : 0.025
#CHOFFSET    : 0.0
#XLABEL      : Energy (eV)
#YLABEL      : Counts
#XPOSITION   : 11.34626
#YPOSITION   : 11.98167
#ZPOSITION   : 34.00161
#EDSDET      : SD
##SPECIMEN   : GM IIIB K961[3][all]
##D2STDCMP   : K961,(O:46.98),(Na:2.97),(Mg:3.02),(Al:5.82),(Si:29.92),(P:0.22),(K:2.49),(Ca:3.57),(Ti:1.2),(Mn:0.32),(Fe:3.5)
##DET_HASH   : 12273538-fd48-a23f-0a19-f1e6fa85caef
##CALIB_HASH : 6abaa72c-aa41-8738-0be9-f592914732f3
##WORKING    : 15.0 mm
##DET_NAME   : EDAX All
##DET_MODE   : MediumLE
#SPECTRUM    :
29,
222,
5273,
8022,
65085,
5872,
3100,
7387,
5059,
29476,
8401,
24836,
86576,
40364,
3629,
2980,
3695,
2831,
2857,
2872,
2759,
2730,
2649,
4516,
11087,
3338,
13183,
5412,
2594,
3541,
2013,
1923,
5886,
2199,
1697,
2230,
1668,
1628,
1473,
1490,
1469,
1406,
2084,
1327,
1334,
3024,
7012,
1230,
1062,
1090,
1695,
1345,
916,
975,
871,
837,
765,
744,
736,
717,
769,
718,
666,
614,
611,
618,
560,
531,
518,
499,
464,
495,
475,
445,
435,
403,
393,
391,
399,
330,
323,
355,
319,
339,
277,
273,
263,
250,
263,
252,
225,
201,
212,
174,
169,
191,
183,
178,
132,
144,
139,
144,
137,
124,
102,
88,
89,
97,
87,
82,
77,
83,
59,
64,
62,
59,
50,
58,
50,
36,
38,
39,
27,
33,
22,
23,
29,
23,
28,
17,
19,
16,
13,
12,
5,
6,
4,
8,
5,
3,
4,
0,
1,
1,
0,
0,
0,
0,
0,
1,
0,
0,
0,
0,
0,
0,
0,
0,
0,
0,
0,
0,
0,
0,
0,
0,
0,
0,
0,
0,
0,
0,
0,
0,
0,
0,
0,
0,
0,
0,
0,
0,
0,
0,
0,
0,
0,
0,
0,
0,
0,
0,
0,
0,
0,
0,
0,
0,
0,
0,
0,
0,
0,
0,
0,
0,
0,
0,
0,
0,
0,
0,
0,
0,
0,
0,
0,
0,
0,
0,
0,
0,
0,
0,
0,
0,
0,
0,
0,
0,
0,
0,
0,
0,
0,
0,
0,
0,
0,
0,
0,
0,
0,
0,
0,
0,
0,
0,
0,
0,
0,
0,
0,
0,
0,
0,
0,
0,
0,
0,
0,
0,
0,
0,
0,
0,
0,
0,
0,
0,
0,
0,
0,
0,
0,
0,
0,
0,
0,
0,
0,
0,
0,
0,
0,
0,
0,
0,
0,
0,
0,
0,
0,
0,
#ENDOFDATA   :