Folder: spex_quant/N132962/Quantification/20 keV/Glass Mount IIIB (part 11)

File: NIST K1229 std.msa
#FORMAT      : EMSA/MAS Spectral Data File
#VERSION     : 1.0
#TITLE       : 'NIST K1229' standard for 'N132962' detector
#NPOINTS     : 4096
#NCOLUMNS    : 1
#XUNITS      : eV
#YUNITS      : counts
#DATATYPE    : Y
#SIGNALTYPE  : EDS
#XLABEL      : Energy (eV)
#YLABEL      : Counts
#XPERCHAN -eV: 9.99778
#OFFSET   -eV: 1.69135
#CHOFFSET    : 0
#OWNER       : Unknown
#ELEVANGLE   : 35
#BEAMKV   -kV: 20
#LIVETIME  -s: 1201.02
#REALTIME  -s: 1297.93
#PROBECUR -nA: 1.22375
##WORKING -mm: 15
##D2STDCMP   : NIST K1229,(O:41.0165),(Mg:1.7730),(Al:9.3409),(Si:21.9989),(Ca:10.5131),(Sr:7.4581),(Ba:7.8995)
##SIMILAR    : 1.1
#SPECTRUM    :
126,
1253,
36174,
31509,
244410,
17076,
19416,
24405,
25262,
98310,
56712,
178331,
320587,
306392,
28747,
17384,
20084,
17618,
17331,
17579,
17146,
17259,
17196,
17763,
16130,
18600,
166974,
63730,
22221,
36675,
12866,
15764,
69453,
12445,
22106,
26922,
12519,
19356,
9938,
11811,
11128,
9973,
9145,
8360,
8011,
7956,
7842,
7311,
6944,
6738,
6721,
6449,
6268,
6368,
6004,
5652,
5459,
5410,
5183,
4949,
4831,
4652,
4523,
4551,
4297,
4167,
3968,
3953,
3881,
3647,
3562,
3439,
3228,
3238,
3026,
2931,
2824,
2708,
2776,
2613,
2483,
2425,
2268,
2269,
2223,
1974,
1917,
1922,
1838,
1756,
1658,
1644,
1534,
1447,
1417,
1283,
1278,
1231,
1188,
1088,
1614,
2653,
1357,
905,
834,
824,
752,
729,
659,
620,
602,
538,
582,
727,
527,
455,
395,
364,
352,
339,
323,
275,
279,
265,
229,
217,
202,
199,
161,
156,
145,
120,
88,
105,
100,
68,
69,
62,
40,
40,
23,
14,
9,
4,
2,
2,
4,
2,
0,
1,
1,
3,
0,
1,
2,
2,
0,
0,
1,
1,
1,
0,
1,
0,
0,
1,
1,
0,
0,
0,
0,
0,
0,
0,
0,
0,
2,
0,
2,
0,
0,
0,
0,
2,
0,
0,
0,
0,
0,
0,
1,
0,
0,
0,
1,
0,
0,
0,
0,
0,
1,
0,
0,
0,
0,
0,
0,
0,
0,
0,
0,
0,
0,
0,
1,
0,
0,
0,
0,
0,
0,
0,
0,
0,
0,
0,
0,
0,
0,
0,
0,
0,
0,
0,
0,
0,
0,
0,
0,
1,
0,
0,
0,
0,
0,
0,
0,
0,
0,
0,
0,
0,
0,
0,
0,
0,
0,
0,
0,
0,
0,
0,
0,
0,
0,
0,
0,
0,
0,
0,
0,
0,
0,
0,
0,
0,
0,
0,
0,
0,
0,
0,
0,
0,
0,
0,
0,
0,
0,
0,
0,
0,
0,
0,
#ENDOFDATA   :

File: NIST K1234 std.msa
#FORMAT      : EMSA/MAS Spectral Data File
#VERSION     : 1.0
#TITLE       : 'NIST K1234' standard for 'N132962' detector
#NPOINTS     : 4096
#NCOLUMNS    : 1
#XUNITS      : eV
#YUNITS      : counts
#DATATYPE    : Y
#SIGNALTYPE  : EDS
#XLABEL      : Energy (eV)
#YLABEL      : Counts
#XPERCHAN -eV: 9.99778
#OFFSET   -eV: 1.69135
#CHOFFSET    : 0
#OWNER       : Unknown
#ELEVANGLE   : 35
#BEAMKV   -kV: 20
#LIVETIME  -s: 1200.9
#REALTIME  -s: 1298.59
#PROBECUR -nA: 1.22375
##WORKING -mm: 15
##D2STDCMP   : NIST K1234,(O:39.8528),(Al:9.1503),(Si:21.5595),(Ca:12.3570),(Ba:15.4944),(W:1.5859)
##SIMILAR    : 1.5
#SPECTRUM    :
113,
1181,
45227,
34326,
258954,
18149,
20373,
25640,
23803,
26763,
54527,
162365,
297220,
165392,
22938,
19331,
22213,
19681,
19176,
19784,
19137,
18821,
18321,
19089,
17440,
19913,
199438,
73655,
26393,
42785,
14141,
20724,
124829,
14503,
33463,
43541,
15435,
28981,
11163,
13999,
13508,
11413,
10425,
9188,
8634,
8547,
8835,
8052,
7639,
7508,
7293,
7036,
6949,
7162,
6725,
6262,
6008,
5698,
5759,
6153,
8636,
5522,
5082,
4956,
4846,
4707,
4465,
4242,
4553,
5291,
4422,
4372,
3935,
3596,
3390,
3296,
3234,
3174,
3009,
2936,
2949,
2791,
2666,
2615,
2423,
2358,
2252,
2176,
2096,
1993,
1924,
1814,
1671,
1631,
1532,
1515,
1425,
1390,
1341,
1243,
1143,
1095,
1105,
1021,
922,
896,
885,
826,
768,
753,
686,
648,
655,
571,
478,
534,
422,
444,
414,
401,
359,
340,
255,
288,
283,
223,
246,
216,
196,
179,
143,
135,
126,
97,
104,
91,
76,
66,
49,
34,
35,
20,
10,
0,
4,
2,
0,
3,
0,
2,
2,
5,
1,
1,
2,
0,
3,
1,
0,
1,
0,
1,
2,
1,
0,
2,
3,
1,
0,
0,
0,
1,
0,
0,
0,
1,
0,
2,
0,
0,
0,
0,
0,
0,
0,
1,
1,
0,
1,
1,
0,
0,
0,
0,
0,
0,
0,
0,
0,
1,
0,
0,
0,
0,
0,
1,
0,
0,
0,
0,
0,
1,
0,
0,
0,
0,
0,
0,
0,
0,
0,
0,
0,
0,
0,
0,
0,
0,
0,
0,
0,
0,
0,
0,
0,
0,
0,
0,
0,
0,
0,
0,
0,
0,
0,
0,
0,
0,
0,
0,
0,
0,
0,
0,
0,
0,
0,
0,
0,
0,
0,
0,
0,
0,
0,
0,
0,
0,
0,
0,
0,
0,
0,
0,
0,
0,
0,
0,
0,
0,
0,
0,
0,
0,
0,
0,
0,
0,
0,
0,
0,
0,
0,
0,
#ENDOFDATA   :