Folder: spex_quant/N132962/Quantification/20 keV/Glass Mount IIIB (part 9)

File: GM IIIB K1234[2][4].msa
#FORMAT      : EMSA/MAS Spectral Data File
#VERSION     : 1.0
#TITLE       : GM IIIB K1234[2][all]
#DATE        : 10-SEP-2025
#TIME        : 17:56
#OWNER       : Unknown
#NPOINTS     : 4096
#NCOLUMNS    : 1
#XUNITS      : eV
#YUNITS      : counts
#DATATYPE    : Y
#XPERCHAN    : 9.99778
#OFFSET      : 1.69135
#BEAMKV      : 20
#SIGNALTYPE  : EDS
#ELEVANGLE   : 35
#AZIMANGLE   : 0
#LIVETIME    : 240.231
#REALTIME    : 259.76
#PROBECUR    : 1.22375
#TAUWIND     : 0
#TDEADLYR    : 0
#TACTLYR     : 0.045
#TALWIND     : 0.025
#CHOFFSET    : 0.0
#XLABEL      : Energy (eV)
#YLABEL      : Counts
#XPOSITION   : 0.654
#YPOSITION   : 15.81859
#ZPOSITION   : 34.06144
#EDSDET      : SD
##SPECIMEN   : GM IIIB K1234[2][all]
##D2STDCMP   : K1234,(O:39.85),(Al:9.15),(Si:21.56),(Ca:12.36),(Ba:15.49),(W:1.59)
##DET_HASH   : 12273538-fd48-a23f-0a19-f1e6fa85caef
##CALIB_HASH : 6abaa72c-aa41-8738-0be9-f592914732f3
##WORKING    : 15.0 mm
##DET_NAME   : EDAX All
##DET_MODE   : MediumLE
#SPECTRUM    :
26,
251,
9903,
6840,
50810,
3848,
3992,
5273,
4823,
5420,
10925,
32670,
58995,
33026,
4629,
3874,
4470,
4009,
3787,
4048,
3832,
3774,
3669,
3824,
3550,
3933,
39779,
14652,
5270,
8688,
2813,
4136,
24939,
3036,
6698,
8705,
3169,
5657,
2290,
2740,
2701,
2329,
2072,
1838,
1694,
1677,
1742,
1700,
1548,
1517,
1453,
1349,
1407,
1471,
1330,
1298,
1183,
1123,
1149,
1249,
1722,
1055,
1046,
1048,
982,
921,
920,
843,
924,
1072,
892,
885,
794,
732,
721,
609,
638,
651,
608,
587,
596,
557,
504,
539,
467,
468,
463,
460,
439,
367,
380,
364,
323,
300,
312,
299,
278,
283,
296,
228,
214,
225,
215,
202,
180,
171,
160,
181,
158,
160,
140,
116,
129,
120,
109,
95,
72,
97,
84,
78,
75,
63,
59,
61,
50,
50,
51,
35,
36,
39,
26,
26,
23,
16,
25,
18,
27,
14,
8,
5,
7,
5,
3,
0,
1,
1,
0,
0,
0,
0,
0,
2,
1,
0,
0,
0,
1,
0,
0,
1,
0,
0,
0,
0,
0,
0,
0,
0,
0,
0,
0,
0,
0,
0,
0,
1,
0,
0,
0,
0,
0,
0,
0,
0,
0,
0,
0,
0,
0,
0,
0,
0,
0,
0,
0,
0,
0,
0,
0,
0,
0,
0,
0,
0,
0,
0,
0,
0,
0,
0,
0,
0,
0,
0,
0,
0,
0,
0,
0,
0,
0,
0,
0,
0,
0,
0,
0,
0,
0,
0,
0,
0,
0,
0,
0,
0,
0,
0,
0,
0,
0,
0,
0,
0,
0,
0,
0,
0,
0,
0,
0,
0,
0,
0,
0,
0,
0,
0,
0,
0,
0,
0,
0,
0,
0,
0,
0,
0,
0,
0,
0,
0,
0,
0,
0,
0,
0,
0,
0,
0,
0,
0,
0,
0,
0,
0,
0,
0,
0,
0,
0,
0,
0,
0,
#ENDOFDATA   :

File: GM IIIB K1234[3][4].msa
#FORMAT      : EMSA/MAS Spectral Data File
#VERSION     : 1.0
#TITLE       : GM IIIB K1234[3][all]
#DATE        : 10-SEP-2025
#TIME        : 17:57
#OWNER       : Unknown
#NPOINTS     : 4096
#NCOLUMNS    : 1
#XUNITS      : eV
#YUNITS      : counts
#DATATYPE    : Y
#XPERCHAN    : 9.99778
#OFFSET      : 1.69135
#BEAMKV      : 20
#SIGNALTYPE  : EDS
#ELEVANGLE   : 35
#AZIMANGLE   : 0
#LIVETIME    : 240.152
#REALTIME    : 259.695
#PROBECUR    : 1.22375
#TAUWIND     : 0
#TDEADLYR    : 0
#TACTLYR     : 0.045
#TALWIND     : 0.025
#CHOFFSET    : 0.0
#XLABEL      : Energy (eV)
#YLABEL      : Counts
#XPOSITION   : 0.57586
#YPOSITION   : 15.81392
#ZPOSITION   : 34.06144
#EDSDET      : SD
##SPECIMEN   : GM IIIB K1234[3][all]
##D2STDCMP   : K1234,(O:39.85),(Al:9.15),(Si:21.56),(Ca:12.36),(Ba:15.49),(W:1.59)
##DET_HASH   : 12273538-fd48-a23f-0a19-f1e6fa85caef
##CALIB_HASH : 6abaa72c-aa41-8738-0be9-f592914732f3
##WORKING    : 15.0 mm
##DET_NAME   : EDAX All
##DET_MODE   : MediumLE
#SPECTRUM    :
14,
231,
8765,
6948,
52184,
3559,
4220,
5083,
4687,
5411,
10951,
32395,
59384,
32991,
4614,
3884,
4462,
3875,
3898,
3945,
3810,
3691,
3554,
3736,
3404,
3995,
39661,
14801,
5284,
8641,
2753,
4103,
24698,
2802,
6796,
8800,
2986,
5773,
2209,
2817,
2695,
2155,
2096,
1858,
1730,
1655,
1743,
1610,
1553,
1466,
1426,
1416,
1401,
1444,
1379,
1273,
1235,
1155,
1109,
1266,
1727,
1148,
1017,
1023,
975,
998,
879,
822,
895,
1073,
909,
904,
780,
762,
693,
670,
660,
653,
623,
612,
568,
523,
513,
538,
496,
499,
457,
423,
415,
455,
392,
371,
332,
339,
285,
281,
316,
261,
261,
253,
237,
192,
227,
197,
176,
167,
198,
177,
148,
139,
135,
134,
124,
111,
83,
96,
90,
83,
87,
83,
70,
70,
47,
53,
49,
47,
51,
42,
34,
32,
31,
26,
26,
21,
15,
21,
9,
9,
8,
7,
7,
6,
0,
0,
2,
0,
0,
0,
0,
1,
1,
1,
0,
0,
0,
0,
0,
0,
0,
0,
0,
1,
1,
0,
0,
0,
0,
0,
0,
0,
0,
0,
0,
0,
0,
0,
0,
1,
0,
0,
0,
0,
0,
0,
0,
0,
1,
0,
1,
0,
0,
0,
0,
0,
0,
0,
0,
0,
0,
0,
0,
0,
0,
0,
0,
0,
0,
0,
0,
0,
0,
0,
0,
0,
0,
0,
0,
0,
0,
0,
0,
0,
0,
0,
0,
0,
0,
0,
0,
0,
0,
0,
0,
0,
0,
0,
0,
0,
0,
0,
0,
0,
0,
0,
0,
0,
0,
0,
0,
0,
0,
0,
0,
0,
0,
0,
0,
0,
0,
0,
0,
0,
0,
0,
0,
0,
0,
0,
0,
0,
0,
0,
0,
0,
0,
0,
0,
0,
0,
0,
0,
0,
0,
0,
0,
0,
0,
0,
0,
0,
0,
0,
0,
0,
#ENDOFDATA   :

File: NIST K229 std.msa
#FORMAT      : EMSA/MAS Spectral Data File
#VERSION     : 1.0
#TITLE       : 'NIST K229' standard for 'N132962' detector
#NPOINTS     : 4096
#NCOLUMNS    : 1
#XUNITS      : eV
#YUNITS      : counts
#DATATYPE    : Y
#SIGNALTYPE  : EDS
#XLABEL      : Energy (eV)
#YLABEL      : Counts
#XPERCHAN -eV: 9.99778
#OFFSET   -eV: 1.69135
#CHOFFSET    : 0
#OWNER       : Unknown
#ELEVANGLE   : 35
#BEAMKV   -kV: 20
#LIVETIME  -s: 1201.54
#REALTIME  -s: 1337.1
#PROBECUR -nA: 1.21918
##WORKING -mm: 15
##D2STDCMP   : NIST K229,(O:20.9940),(Si:14.0240),(Pb:64.9821)
##SIMILAR    : 1.0
#SPECTRUM    :
108,
2693,
59284,
37271,
142666,
41082,
35366,
38126,
42017,
46993,
51389,
56751,
272895,
202684,
45105,
46548,
99965,
779795,
130727,
63498,
27543,
30351,
38173,
28410,
26143,
27540,
26434,
26418,
25481,
26366,
26298,
25243,
27000,
25172,
25486,
24655,
23287,
22945,
22800,
22420,
22278,
21453,
21203,
20544,
19936,
20274,
21280,
18857,
18589,
18232,
17890,
17400,
16849,
17594,
16559,
15680,
15189,
15188,
14682,
14503,
13904,
13441,
13218,
12821,
12518,
14013,
14389,
11764,
11511,
10892,
10897,
10646,
10364,
10208,
15483,
59573,
32520,
9293,
8639,
8352,
8132,
8117,
7486,
7079,
6936,
6757,
6916,
7246,
6986,
9828,
26648,
11362,
6401,
6263,
4967,
4408,
4271,
4054,
3986,
3853,
3572,
3525,
3420,
3069,
3213,
4448,
3845,
2878,
3024,
2590,
2274,
2099,
2112,
1938,
1844,
1669,
1678,
1515,
1506,
1334,
1323,
1220,
1129,
1118,
996,
930,
860,
792,
754,
676,
629,
532,
504,
472,
423,
350,
309,
273,
244,
180,
145,
99,
55,
29,
20,
20,
24,
19,
18,
20,
13,
26,
16,
13,
16,
13,
11,
12,
7,
6,
5,
11,
6,
8,
12,
16,
10,
7,
9,
6,
3,
2,
5,
4,
4,
3,
2,
6,
7,
8,
4,
4,
4,
6,
2,
7,
1,
4,
3,
4,
0,
2,
1,
2,
3,
2,
3,
0,
1,
1,
2,
2,
5,
0,
1,
3,
0,
1,
2,
1,
0,
1,
2,
0,
0,
0,
0,
1,
2,
1,
1,
0,
0,
0,
0,
0,
1,
1,
0,
0,
0,
0,
2,
1,
0,
0,
0,
1,
0,
0,
0,
1,
0,
0,
0,
0,
0,
0,
0,
0,
0,
0,
0,
0,
0,
0,
0,
0,
0,
0,
0,
0,
0,
0,
0,
0,
0,
0,
0,
0,
0,
0,
0,
0,
0,
0,
0,
0,
0,
0,
0,
0,
0,
0,
0,
0,
0,
0,
0,
0,
0,
0,
0,
0,
#ENDOFDATA   :

File: NIST K240 std.msa
#FORMAT      : EMSA/MAS Spectral Data File
#VERSION     : 1.0
#TITLE       : 'NIST K240' standard for 'N132962' detector
#NPOINTS     : 4096
#NCOLUMNS    : 1
#XUNITS      : eV
#YUNITS      : counts
#DATATYPE    : Y
#SIGNALTYPE  : EDS
#XLABEL      : Energy (eV)
#YLABEL      : Counts
#XPERCHAN -eV: 9.99778
#OFFSET   -eV: 1.69135
#CHOFFSET    : 0
#OWNER       : Unknown
#ELEVANGLE   : 35
#BEAMKV   -kV: 20
#LIVETIME  -s: 1200.81
#REALTIME  -s: 1299.71
#PROBECUR -nA: 1.2221
##WORKING -mm: 15
##D2STDCMP   : NIST K240,(O:34.0023),(Mg:3.0154),(Si:18.6986),(Ti:5.9950),(Zn:4.0168),(Zr:7.4030),(Ba:26.8689)
##SIMILAR    : 1.1
#SPECTRUM    :
105,
1760,
39928,
57319,
265411,
22766,
26710,
66625,
26261,
113295,
27466,
32593,
259281,
134074,
39046,
90500,
31730,
23055,
23975,
23210,
23196,
21892,
22535,
21430,
21027,
20931,
20330,
19516,
24949,
19343,
18228,
32125,
326642,
30547,
55573,
87580,
23642,
45953,
14252,
18780,
18837,
15400,
13875,
11655,
11002,
10949,
11061,
10214,
9874,
9445,
9404,
8933,
8827,
9022,
8367,
8060,
8106,
7750,
7425,
7299,
7150,
15125,
20640,
6762,
6631,
6187,
5927,
5976,
7838,
6499,
5218,
5202,
4905,
4777,
4656,
4433,
4216,
4156,
4057,
3954,
3779,
3612,
3496,
3311,
3147,
3155,
3035,
2937,
2768,
2585,
2535,
2434,
2354,
2186,
2205,
2041,
1918,
1862,
1832,
1735,
1562,
1601,
1483,
1385,
1334,
1254,
1176,
1117,
1115,
985,
933,
950,
1247,
1083,
838,
732,
686,
649,
603,
550,
525,
500,
445,
408,
337,
374,
391,
291,
289,
240,
222,
189,
189,
182,
128,
116,
103,
75,
78,
48,
42,
35,
10,
5,
1,
6,
3,
4,
4,
4,
4,
5,
2,
3,
2,
2,
0,
3,
3,
3,
1,
1,
0,
0,
2,
2,
1,
1,
1,
2,
0,
1,
1,
2,
0,
1,
1,
0,
0,
0,
0,
0,
1,
0,
1,
2,
0,
1,
1,
0,
1,
0,
0,
0,
0,
2,
0,
0,
1,
0,
0,
0,
0,
0,
0,
0,
0,
1,
0,
0,
0,
0,
0,
0,
0,
0,
0,
0,
0,
1,
0,
0,
0,
0,
0,
0,
0,
0,
0,
0,
0,
0,
0,
0,
0,
0,
0,
0,
0,
0,
0,
0,
0,
0,
0,
0,
0,
0,
0,
0,
0,
0,
0,
0,
0,
0,
0,
0,
0,
0,
0,
0,
0,
0,
0,
0,
0,
0,
0,
0,
0,
0,
0,
0,
0,
0,
0,
0,
0,
0,
0,
0,
0,
0,
0,
0,
0,
0,
0,
0,
0,
0,
0,
0,
#ENDOFDATA   :

File: NIST K251 std.msa
#FORMAT      : EMSA/MAS Spectral Data File
#VERSION     : 1.0
#TITLE       : 'NIST K251' standard for 'N132962' detector
#NPOINTS     : 4096
#NCOLUMNS    : 1
#XUNITS      : eV
#YUNITS      : counts
#DATATYPE    : Y
#SIGNALTYPE  : EDS
#XLABEL      : Energy (eV)
#YLABEL      : Counts
#XPERCHAN -eV: 9.99778
#OFFSET   -eV: 1.69135
#CHOFFSET    : 0
#OWNER       : Unknown
#ELEVANGLE   : 35
#BEAMKV   -kV: 20
#LIVETIME  -s: 1201.29
#REALTIME  -s: 1327.26
#PROBECUR -nA: 1.2221
##WORKING -mm: 15
##D2STDCMP   : NIST K251,(O:23.0219),(Al:1.3231),(Si:14.0240),(Ba:8.9563),(Ta:4.0948),(Pb:44.0950),(Bi:4.4850)
##SIMILAR    : 1.0
#SPECTRUM    :
112,
2521,
54151,
39550,
167653,
37720,
33807,
37177,
38216,
43207,
50724,
71400,
300282,
178963,
41426,
40055,
75276,
524591,
121769,
53881,
27966,
29477,
34882,
28573,
26372,
27001,
25683,
26047,
26952,
25805,
25479,
28357,
90460,
24903,
36564,
42003,
24476,
32645,
21419,
22741,
22705,
21075,
20183,
18958,
18459,
18641,
19224,
17314,
17029,
16557,
16239,
16358,
15524,
16067,
15230,
14331,
13903,
14403,
23604,
15256,
12755,
12337,
11963,
11958,
11579,
12391,
14239,
13988,
11379,
11990,
10070,
9478,
9208,
9122,
12431,
41571,
23543,
11129,
9833,
7641,
7383,
7235,
6740,
6395,
6385,
6088,
6271,
6240,
6144,
8059,
18943,
8741,
5846,
6256,
4428,
4096,
3850,
3583,
3547,
3468,
3262,
3080,
3073,
2870,
2813,
3517,
3112,
2476,
2482,
2372,
2071,
2002,
1860,
1757,
1655,
1576,
1450,
1350,
1333,
1204,
1162,
1125,
998,
970,
866,
798,
751,
694,
644,
634,
517,
462,
469,
405,
358,
275,
270,
210,
195,
143,
120,
79,
48,
32,
20,
14,
20,
20,
16,
12,
16,
6,
16,
12,
8,
10,
7,
10,
3,
6,
11,
9,
6,
5,
6,
6,
6,
3,
10,
2,
3,
9,
2,
3,
4,
0,
6,
5,
1,
7,
3,
4,
4,
5,
3,
7,
6,
1,
3,
2,
2,
2,
0,
4,
3,
2,
4,
1,
1,
0,
5,
3,
2,
3,
0,
1,
0,
0,
0,
0,
2,
2,
2,
1,
0,
0,
0,
1,
0,
0,
0,
0,
2,
0,
0,
2,
0,
0,
0,
1,
0,
0,
1,
0,
0,
0,
1,
1,
0,
1,
0,
0,
0,
1,
0,
2,
0,
0,
0,
0,
0,
0,
0,
0,
0,
0,
0,
0,
0,
0,
0,
0,
0,
0,
0,
0,
0,
0,
0,
0,
0,
0,
0,
0,
0,
0,
0,
0,
0,
0,
0,
0,
0,
0,
0,
0,
0,
0,
0,
0,
0,
0,
0,
0,
#ENDOFDATA   :

File: NIST K252 std.msa
#FORMAT      : EMSA/MAS Spectral Data File
#VERSION     : 1.0
#TITLE       : 'NIST K252' standard for 'N132962' detector
#NPOINTS     : 4096
#NCOLUMNS    : 1
#XUNITS      : eV
#YUNITS      : counts
#DATATYPE    : Y
#SIGNALTYPE  : EDS
#XLABEL      : Energy (eV)
#YLABEL      : Counts
#XPERCHAN -eV: 9.99778
#OFFSET   -eV: 1.69135
#CHOFFSET    : 0
#OWNER       : Unknown
#ELEVANGLE   : 35
#BEAMKV   -kV: 20
#LIVETIME  -s: 1201.07
#REALTIME  -s: 1307.33
#PROBECUR -nA: 1.2221
##WORKING -mm: 15
##D2STDCMP   : NIST K252,(O:30.8345),(Si:18.6986),(Mn:3.1597),(Co:3.9323),(Cu:3.9942),(Zn:8.0337),(Ba:31.3470)
##SIMILAR    : 1.2
#SPECTRUM    :
142,
1681,
40049,
53043,
345452,
36129,
38591,
116191,
24942,
23073,
26334,
32071,
241284,
122401,
23347,
24064,
26938,
25188,
25163,
26101,
25466,
24571,
24792,
23523,
23134,
22855,
22194,
21467,
27929,
21586,
20245,
36226,
273354,
22017,
66140,
88847,
25305,
55832,
15712,
21525,
21812,
18625,
55958,
16222,
12030,
12159,
16554,
12715,
10919,
29177,
24489,
9921,
9766,
9962,
11252,
12046,
8991,
24384,
18827,
8141,
8059,
25000,
37305,
9506,
9111,
6732,
6594,
6631,
10577,
8186,
5830,
5562,
5510,
5280,
5119,
5046,
4749,
4599,
4433,
4431,
4188,
3953,
3852,
3804,
3564,
3518,
3394,
3355,
3141,
2919,
2781,
2720,
2657,
2558,
2397,
2377,
2137,
2157,
1973,
1907,
1825,
1721,
1542,
1587,
1521,
1449,
1298,
1345,
1204,
1185,
1116,
1058,
971,
930,
876,
840,
736,
698,
639,
622,
591,
563,
546,
487,
439,
423,
384,
383,
306,
301,
264,
240,
213,
171,
161,
136,
127,
93,
92,
77,
67,
36,
17,
9,
10,
7,
6,
9,
3,
6,
4,
6,
9,
2,
4,
1,
4,
1,
3,
3,
4,
4,
2,
2,
4,
4,
3,
3,
2,
0,
1,
2,
1,
2,
0,
0,
1,
1,
0,
0,
1,
0,
2,
0,
0,
1,
2,
1,
1,
0,
1,
0,
0,
0,
0,
1,
0,
1,
1,
0,
0,
0,
0,
0,
0,
0,
0,
1,
1,
0,
0,
0,
1,
0,
0,
0,
0,
0,
0,
0,
0,
0,
0,
0,
0,
0,
0,
0,
0,
0,
0,
0,
0,
0,
0,
0,
0,
0,
0,
0,
0,
0,
0,
0,
0,
0,
0,
0,
0,
0,
0,
0,
0,
0,
0,
0,
0,
0,
0,
0,
0,
0,
0,
0,
0,
0,
0,
0,
0,
0,
0,
0,
0,
0,
0,
0,
0,
0,
0,
0,
0,
0,
0,
0,
0,
0,
0,
0,
0,
0,
0,
0,
0,
0,
#ENDOFDATA   :

File: NIST K253 std.msa
#FORMAT      : EMSA/MAS Spectral Data File
#VERSION     : 1.0
#TITLE       : 'NIST K253' standard for 'N132962' detector
#NPOINTS     : 4096
#NCOLUMNS    : 1
#XUNITS      : eV
#YUNITS      : counts
#DATATYPE    : Y
#SIGNALTYPE  : EDS
#XLABEL      : Energy (eV)
#YLABEL      : Counts
#XPERCHAN -eV: 9.99778
#OFFSET   -eV: 1.69135
#CHOFFSET    : 0
#OWNER       : Unknown
#ELEVANGLE   : 35
#BEAMKV   -kV: 20
#LIVETIME  -s: 1201.08
#REALTIME  -s: 1307.96
#PROBECUR -nA: 1.2221
##WORKING -mm: 15
##D2STDCMP   : NIST K253,(O:31.6381),(Si:18.6986),(Mn:6.3193),(Co:1.9662),(Cu:1.9971),(Zn:8.0337),(Ba:31.3470)
##SIMILAR    : 1.0
#SPECTRUM    :
99,
1644,
39259,
53574,
354744,
33298,
33759,
109574,
25019,
23671,
26458,
31683,
243130,
124108,
23482,
24192,
27045,
25522,
25358,
26114,
25129,
24202,
24766,
23538,
22749,
22990,
22053,
21427,
27866,
21863,
20609,
36297,
275739,
22036,
66574,
89846,
25130,
56148,
15734,
21471,
21785,
19636,
93996,
19315,
11961,
12029,
19909,
14199,
10548,
20430,
17957,
9991,
9668,
9854,
10335,
10482,
8662,
17576,
14126,
8105,
8109,
24925,
37054,
8762,
8082,
6848,
6613,
6765,
10397,
8048,
5881,
5663,
5435,
5160,
5325,
4945,
4803,
4606,
4495,
4320,
4261,
4045,
4002,
3723,
3603,
3442,
3352,
3258,
3132,
2886,
2806,
2834,
2612,
2587,
2415,
2235,
2221,
2095,
2046,
1866,
1866,
1745,
1740,
1573,
1455,
1393,
1368,
1233,
1205,
1180,
1066,
1099,
977,
936,
860,
856,
784,
699,
642,
648,
584,
541,
538,
456,
460,
394,
378,
350,
325,
275,
280,
228,
213,
227,
172,
119,
106,
111,
82,
75,
50,
34,
23,
10,
9,
4,
8,
6,
8,
8,
6,
4,
1,
4,
4,
5,
2,
6,
4,
0,
6,
2,
2,
2,
1,
2,
3,
3,
2,
2,
4,
4,
1,
0,
0,
2,
0,
1,
1,
1,
0,
2,
0,
2,
1,
0,
1,
1,
0,
1,
0,
0,
0,
0,
0,
0,
0,
0,
0,
0,
0,
0,
0,
1,
1,
0,
1,
1,
0,
0,
0,
1,
0,
0,
0,
1,
0,
0,
0,
0,
1,
0,
0,
0,
1,
0,
0,
0,
0,
0,
0,
0,
0,
0,
0,
0,
0,
0,
0,
0,
0,
0,
0,
0,
0,
0,
0,
0,
0,
0,
0,
0,
0,
0,
0,
0,
0,
0,
0,
0,
0,
0,
0,
0,
0,
0,
0,
0,
0,
0,
0,
0,
0,
0,
0,
0,
0,
0,
0,
0,
0,
0,
0,
0,
0,
0,
0,
0,
0,
0,
0,
0,
0,
0,
#ENDOFDATA   :

File: NIST K366 std.msa
#FORMAT      : EMSA/MAS Spectral Data File
#VERSION     : 1.0
#TITLE       : 'NIST K366' standard for 'N132962' detector
#NPOINTS     : 4096
#NCOLUMNS    : 1
#XUNITS      : eV
#YUNITS      : counts
#DATATYPE    : Y
#SIGNALTYPE  : EDS
#XLABEL      : Energy (eV)
#YLABEL      : Counts
#XPERCHAN -eV: 9.99778
#OFFSET   -eV: 1.69135
#CHOFFSET    : 0
#OWNER       : Unknown
#ELEVANGLE   : 35
#BEAMKV   -kV: 20
#LIVETIME  -s: 1201.47
#REALTIME  -s: 1338.63
#PROBECUR -nA: 1.22475
##WORKING -mm: 15
##D2STDCMP   : NIST K366,(O:20.4271),(Si:13.4490),(Pb:66.1239)
##SIMILAR    : 1.0
#SPECTRUM    :
134,
2885,
60267,
37305,
140120,
42024,
35923,
38695,
42662,
47833,
52441,
56974,
263542,
201209,
45872,
48100,
102246,
800710,
133468,
64416,
27939,
30822,
38582,
28808,
26863,
28366,
27082,
26891,
25939,
27119,
26846,
25677,
27814,
25586,
25827,
24946,
23790,
23772,
23361,
22663,
22687,
21640,
21597,
20966,
20466,
20914,
21494,
19702,
18960,
18639,
18345,
17667,
17396,
18094,
16663,
15949,
15869,
15296,
14922,
14686,
14173,
13776,
13643,
13382,
12770,
13989,
14574,
11949,
11671,
11406,
11081,
10682,
10610,
10264,
15700,
61495,
33455,
9723,
8782,
8466,
8339,
8258,
7758,
7336,
7121,
7029,
7039,
7622,
7146,
10008,
27726,
11593,
6489,
6390,
4997,
4474,
4428,
4142,
3915,
3848,
3802,
3560,
3359,
3272,
3318,
4596,
3862,
2933,
3066,
2714,
2289,
2171,
2115,
1993,
2004,
1846,
1685,
1615,
1497,
1377,
1356,
1282,
1184,
1070,
1009,
911,
839,
825,
752,
682,
657,
600,
583,
470,
382,
395,
329,
270,
207,
173,
145,
100,
72,
29,
19,
29,
15,
16,
18,
18,
21,
24,
7,
16,
8,
13,
16,
10,
12,
7,
11,
5,
9,
6,
8,
11,
11,
3,
2,
3,
2,
7,
5,
5,
5,
1,
4,
3,
1,
5,
6,
5,
4,
4,
4,
1,
6,
6,
2,
6,
2,
1,
2,
1,
4,
4,
3,
2,
1,
1,
1,
3,
1,
1,
0,
2,
0,
0,
1,
1,
1,
1,
2,
1,
0,
2,
1,
1,
1,
0,
1,
0,
0,
1,
1,
0,
0,
0,
2,
0,
0,
1,
1,
1,
0,
0,
0,
1,
0,
0,
0,
0,
0,
0,
0,
0,
0,
0,
0,
0,
0,
0,
0,
1,
0,
0,
0,
0,
0,
0,
0,
0,
0,
0,
0,
0,
0,
0,
0,
0,
0,
0,
0,
0,
0,
0,
0,
0,
0,
0,
0,
0,
0,
0,
0,
0,
0,
0,
0,
0,
0,
0,
0,
0,
#ENDOFDATA   :

File: NIST K371 std.msa
#FORMAT      : EMSA/MAS Spectral Data File
#VERSION     : 1.0
#TITLE       : 'NIST K371' standard for 'N132962' detector
#NPOINTS     : 4096
#NCOLUMNS    : 1
#XUNITS      : eV
#YUNITS      : counts
#DATATYPE    : Y
#SIGNALTYPE  : EDS
#XLABEL      : Energy (eV)
#YLABEL      : Counts
#XPERCHAN -eV: 9.99778
#OFFSET   -eV: 1.69135
#CHOFFSET    : 0
#OWNER       : Unknown
#ELEVANGLE   : 35
#BEAMKV   -kV: 20
#LIVETIME  -s: 961.0091
#REALTIME  -s: 1047.98
#PROBECUR -nA: 1.22592
##WORKING -mm: 15
##D2STDCMP   : NIST K371,(O:31.9322),(Si:23.0834),(Zn:3.0689),(Ba:41.9155)
##SIMILAR    : 1.2
#SPECTRUM    :
103,
1387,
35304,
43492,
291027,
23771,
23312,
47542,
20127,
20044,
22577,
27159,
235935,
117067,
18714,
19356,
22235,
20534,
20005,
21157,
20232,
19818,
19973,
18804,
18618,
18948,
17694,
17614,
24185,
17935,
16530,
32944,
279435,
18728,
65406,
88387,
22455,
54229,
13085,
18799,
19022,
14882,
13163,
10504,
9817,
9543,
9875,
9028,
8508,
8475,
8332,
7930,
7847,
8089,
7664,
7217,
7040,
6844,
6636,
6669,
6512,
11195,
15050,
6121,
5830,
5577,
5498,
5234,
6484,
5670,
4838,
4725,
4598,
4319,
4357,
4050,
4107,
3755,
3689,
3617,
3419,
3398,
3226,
3150,
3008,
2873,
2795,
2682,
2633,
2494,
2437,
2273,
2200,
2201,
2043,
1990,
1833,
1715,
1662,
1655,
1473,
1483,
1431,
1355,
1222,
1221,
1111,
1047,
1061,
988,
962,
881,
784,
780,
702,
708,
620,
604,
555,
531,
504,
454,
439,
429,
365,
326,
319,
295,
269,
259,
227,
205,
178,
166,
156,
115,
108,
100,
66,
59,
40,
31,
10,
5,
12,
8,
7,
5,
10,
1,
3,
4,
4,
4,
2,
2,
4,
5,
0,
6,
4,
3,
2,
1,
2,
1,
0,
2,
1,
2,
0,
2,
2,
2,
1,
1,
2,
1,
0,
2,
0,
1,
0,
0,
0,
0,
1,
0,
0,
0,
0,
0,
0,
0,
0,
2,
1,
0,
0,
0,
0,
0,
0,
0,
2,
0,
0,
0,
2,
0,
0,
0,
0,
0,
0,
0,
0,
0,
0,
0,
0,
0,
0,
0,
0,
0,
0,
0,
0,
0,
0,
0,
0,
0,
0,
0,
0,
0,
0,
0,
0,
0,
0,
0,
0,
0,
0,
0,
0,
0,
0,
0,
0,
0,
0,
0,
0,
0,
0,
0,
0,
0,
0,
0,
0,
0,
0,
0,
0,
0,
0,
0,
0,
0,
0,
0,
0,
0,
0,
0,
0,
0,
0,
0,
0,
0,
0,
0,
0,
0,
0,
0,
0,
0,
#ENDOFDATA   :

File: NIST K373 std.msa
#FORMAT      : EMSA/MAS Spectral Data File
#VERSION     : 1.0
#TITLE       : 'NIST K373' standard for 'N132962' detector
#NPOINTS     : 4096
#NCOLUMNS    : 1
#XUNITS      : eV
#YUNITS      : counts
#DATATYPE    : Y
#SIGNALTYPE  : EDS
#XLABEL      : Energy (eV)
#YLABEL      : Counts
#XPERCHAN -eV: 9.99778
#OFFSET   -eV: 1.69135
#CHOFFSET    : 0
#OWNER       : Unknown
#ELEVANGLE   : 35
#BEAMKV   -kV: 20
#LIVETIME  -s: 960.399
#REALTIME  -s: 1040.193
#PROBECUR -nA: 1.22475
##WORKING -mm: 15
##D2STDCMP   : NIST K373,(O:42.3397),(Na:10.4304),(Si:31.8484),(Zn:4.9407),(Ba:10.3803),(U:0.0534)
##SIMILAR    : 1.4
#SPECTRUM    :
70,
969,
22990,
40506,
329572,
14497,
17755,
100932,
25081,
16683,
19247,
25394,
362622,
168361,
12495,
12730,
17261,
13438,
13104,
13429,
13971,
12638,
12596,
12324,
12311,
13724,
11198,
10948,
12007,
10358,
9927,
13912,
71098,
9829,
20377,
25692,
10129,
17543,
7882,
9097,
8849,
7670,
7229,
6233,
6268,
6010,
6130,
5520,
5425,
5164,
5044,
4745,
4776,
4768,
4426,
4304,
4042,
3983,
3961,
3782,
3764,
11536,
16840,
3549,
3169,
3103,
2987,
3039,
4796,
3858,
2593,
2518,
2537,
2385,
2378,
2185,
2196,
2062,
1978,
1893,
1828,
1813,
1692,
1656,
1553,
1539,
1475,
1397,
1313,
1288,
1227,
1193,
1135,
1023,
1026,
1012,
929,
861,
847,
738,
830,
701,
665,
615,
582,
564,
543,
576,
510,
464,
436,
424,
404,
356,
356,
299,
311,
285,
273,
238,
228,
216,
229,
167,
178,
167,
146,
118,
115,
99,
85,
99,
63,
73,
65,
42,
44,
39,
29,
16,
32,
9,
10,
4,
5,
0,
1,
0,
0,
1,
1,
3,
0,
0,
2,
3,
3,
1,
0,
0,
1,
1,
1,
0,
2,
0,
0,
0,
0,
1,
0,
0,
0,
0,
0,
2,
0,
0,
0,
0,
0,
0,
0,
0,
0,
1,
0,
0,
0,
0,
0,
1,
1,
0,
0,
0,
0,
0,
0,
0,
0,
0,
1,
0,
0,
0,
0,
0,
0,
0,
0,
0,
0,
0,
0,
0,
0,
0,
0,
0,
0,
0,
0,
0,
0,
0,
0,
0,
0,
0,
0,
0,
0,
0,
0,
0,
0,
0,
0,
0,
0,
0,
0,
0,
0,
0,
0,
0,
0,
0,
0,
0,
0,
0,
0,
0,
0,
0,
0,
0,
0,
0,
0,
0,
0,
0,
0,
0,
0,
0,
0,
0,
0,
0,
0,
0,
0,
0,
0,
0,
0,
0,
0,
0,
0,
0,
0,
0,
0,
0,
0,
0,
0,
0,
#ENDOFDATA   :

File: NIST K378 std.msa
#FORMAT      : EMSA/MAS Spectral Data File
#VERSION     : 1.0
#TITLE       : 'NIST K378' standard for 'N132962' detector
#NPOINTS     : 4096
#NCOLUMNS    : 1
#XUNITS      : eV
#YUNITS      : counts
#DATATYPE    : Y
#SIGNALTYPE  : EDS
#XLABEL      : Energy (eV)
#YLABEL      : Counts
#XPERCHAN -eV: 9.99778
#OFFSET   -eV: 1.69135
#CHOFFSET    : 0
#OWNER       : Unknown
#ELEVANGLE   : 35
#BEAMKV   -kV: 20
#LIVETIME  -s: 1200.82
#REALTIME  -s: 1299.4
#PROBECUR -nA: 1.22592
##WORKING -mm: 15
##D2STDCMP   : NIST K378,(O:41.6622),(Na:10.1930),(Si:31.0491),(Zn:4.8363),(Ba:10.1564),(U:2.1030)
##SIMILAR    : 2.0
#SPECTRUM    :
98,
1219,
37736,
51155,
397856,
17997,
22406,
123374,
31279,
21185,
24553,
31870,
431960,
201690,
16149,
16566,
21561,
17496,
17616,
17254,
17779,
16456,
18214,
25568,
24543,
18028,
14865,
14008,
15521,
13467,
13049,
17185,
87051,
12629,
25284,
31781,
13099,
21539,
9973,
11423,
11461,
9807,
9239,
8213,
7891,
7797,
7779,
7067,
6961,
6736,
6490,
6187,
6188,
6217,
5826,
5592,
5329,
5274,
5059,
5059,
5083,
14022,
21028,
4584,
4110,
4113,
3941,
3945,
6250,
4834,
3514,
3447,
3287,
3144,
3018,
2892,
2824,
2705,
2565,
2501,
2375,
2319,
2204,
2183,
2048,
2020,
1938,
1803,
1812,
1701,
1547,
1564,
1381,
1405,
1340,
1248,
1323,
1274,
1186,
1039,
1035,
935,
847,
852,
866,
771,
747,
692,
704,
557,
575,
512,
520,
500,
443,
418,
388,
385,
356,
310,
294,
288,
272,
217,
222,
218,
205,
164,
118,
143,
138,
137,
92,
77,
82,
74,
63,
46,
40,
32,
24,
20,
10,
5,
3,
1,
0,
2,
2,
1,
2,
1,
0,
0,
0,
1,
3,
2,
1,
0,
2,
3,
0,
4,
0,
0,
2,
0,
0,
1,
1,
0,
1,
0,
0,
0,
0,
0,
1,
0,
0,
0,
0,
0,
0,
0,
0,
0,
1,
0,
1,
1,
0,
1,
0,
2,
0,
0,
0,
0,
0,
0,
0,
0,
0,
0,
0,
0,
0,
0,
0,
0,
0,
0,
0,
1,
0,
0,
0,
0,
0,
0,
0,
0,
0,
0,
0,
0,
0,
0,
0,
0,
0,
0,
0,
0,
0,
0,
0,
0,
0,
0,
0,
0,
0,
0,
0,
0,
0,
0,
0,
0,
0,
0,
0,
0,
0,
0,
0,
0,
0,
0,
0,
0,
0,
0,
0,
0,
0,
0,
0,
0,
0,
0,
0,
0,
0,
0,
0,
0,
0,
0,
0,
0,
0,
0,
0,
0,
0,
0,
0,
0,
0,
0,
#ENDOFDATA   :

File: NIST K408 std.msa
#FORMAT      : EMSA/MAS Spectral Data File
#VERSION     : 1.0
#TITLE       : 'NIST K408' standard for 'N132962' detector
#NPOINTS     : 4096
#NCOLUMNS    : 1
#XUNITS      : eV
#YUNITS      : counts
#DATATYPE    : Y
#SIGNALTYPE  : EDS
#XLABEL      : Energy (eV)
#YLABEL      : Counts
#XPERCHAN -eV: 9.99778
#OFFSET   -eV: 1.69135
#CHOFFSET    : 0
#OWNER       : Unknown
#ELEVANGLE   : 35
#BEAMKV   -kV: 20
#LIVETIME  -s: 1201.09
#REALTIME  -s: 1333.37
#PROBECUR -nA: 1.22588
##WORKING -mm: 15
##D2STDCMP   : NIST K408,(O:21.3174),(Si:14.0240),(Eu:4.3182),(Pb:60.3405)
##SIMILAR    : 1.1
#SPECTRUM    :
111,
2671,
60185,
37657,
145901,
40116,
38504,
38705,
58598,
45832,
50282,
54309,
262763,
192222,
43310,
45079,
93071,
712316,
121309,
61286,
27283,
30178,
37517,
28148,
26332,
28093,
26250,
26258,
25480,
26284,
25985,
24944,
27556,
24834,
25108,
24253,
23305,
23495,
22502,
22116,
21858,
25382,
36823,
20585,
20098,
20198,
30192,
21158,
19091,
20984,
17708,
16930,
16645,
18226,
16708,
15911,
15266,
14588,
14217,
13987,
13495,
13313,
13095,
12601,
12474,
13565,
13819,
11509,
11216,
10795,
10587,
10444,
10062,
10064,
14999,
55913,
30222,
8894,
8453,
8071,
7933,
7719,
7381,
6967,
6841,
6762,
6626,
7005,
6778,
9292,
25085,
10964,
6067,
6134,
4780,
4359,
4132,
4026,
3756,
3610,
3503,
3447,
3250,
3122,
3163,
4235,
3608,
2702,
2896,
2404,
2270,
2132,
1980,
1960,
1740,
1620,
1616,
1460,
1434,
1331,
1228,
1239,
1147,
1029,
980,
846,
845,
788,
725,
649,
582,
546,
468,
450,
389,
344,
305,
254,
231,
185,
150,
92,
45,
37,
18,
21,
17,
11,
15,
6,
17,
15,
16,
8,
14,
10,
8,
7,
9,
13,
11,
12,
8,
7,
7,
6,
8,
4,
7,
9,
6,
4,
3,
3,
4,
8,
8,
5,
8,
7,
2,
8,
5,
2,
3,
5,
4,
5,
2,
1,
0,
2,
2,
4,
2,
2,
2,
2,
0,
4,
4,
2,
0,
2,
1,
2,
1,
0,
2,
0,
1,
0,
2,
0,
1,
0,
0,
1,
2,
2,
0,
0,
0,
0,
2,
3,
1,
0,
3,
1,
2,
0,
0,
1,
0,
0,
0,
0,
0,
0,
1,
0,
0,
0,
0,
0,
0,
0,
0,
0,
0,
0,
0,
0,
0,
0,
0,
0,
0,
0,
0,
0,
0,
0,
0,
0,
0,
0,
0,
0,
0,
0,
0,
0,
0,
0,
0,
0,
0,
0,
0,
0,
0,
0,
0,
0,
0,
0,
0,
0,
0,
0,
0,
0,
#ENDOFDATA   :