Folder: spex_quant/N132962/Quantification/20 keV/Glass Mount IIIB (part 4)

File: GM IIIB K412[0][4].msa
#FORMAT      : EMSA/MAS Spectral Data File
#VERSION     : 1.0
#TITLE       : GM IIIB K412[0][all]
#DATE        : 10-SEP-2025
#TIME        : 14:16
#OWNER       : Unknown
#NPOINTS     : 4096
#NCOLUMNS    : 1
#XUNITS      : eV
#YUNITS      : counts
#DATATYPE    : Y
#XPERCHAN    : 9.99778
#OFFSET      : 1.69135
#BEAMKV      : 20
#SIGNALTYPE  : EDS
#ELEVANGLE   : 35
#AZIMANGLE   : 0
#LIVETIME    : 240.18
#REALTIME    : 258.474
#PROBECUR    : 1.22574
#TAUWIND     : 0
#TDEADLYR    : 0
#TACTLYR     : 0.045
#TALWIND     : 0.025
#CHOFFSET    : 0.0
#XLABEL      : Energy (eV)
#YLABEL      : Counts
#XPOSITION   : 3.15807
#YPOSITION   : 4.78829
#ZPOSITION   : 34.06144
#EDSDET      : SD
##SPECIMEN   : GM IIIB K412[0][all]
##D2STDCMP   : K412,(O:42.7576),(Mg:11.6568),(Al:4.9062),(Si:21.1983),(Ca:10.8991),(Fe:7.742)
##DET_HASH   : 12273538-fd48-a23f-0a19-f1e6fa85caef
##CALIB_HASH : 6abaa72c-aa41-8738-0be9-f592914732f3
##WORKING    : 15.0 mm
##DET_NAME   : EDAX All
##DET_MODE   : MediumLE
#SPECTRUM    :
25,
220,
7506,
6849,
55383,
9949,
3061,
4023,
5158,
100772,
6974,
18309,
57868,
28177,
3812,
3136,
3883,
3262,
3195,
3162,
3114,
3018,
2930,
2896,
2793,
3151,
34033,
12354,
3670,
6966,
2138,
2061,
2077,
1948,
1769,
1809,
1708,
1669,
1610,
1693,
1436,
1543,
1584,
1292,
1408,
5263,
13771,
1342,
1143,
1187,
2612,
1721,
908,
982,
974,
882,
855,
830,
828,
797,
767,
779,
701,
688,
667,
664,
653,
569,
586,
600,
549,
496,
555,
480,
469,
431,
451,
379,
390,
390,
362,
348,
353,
298,
287,
302,
302,
314,
295,
246,
245,
237,
223,
225,
197,
224,
205,
164,
178,
158,
167,
162,
171,
149,
118,
107,
121,
104,
82,
96,
94,
75,
77,
71,
58,
67,
51,
57,
42,
52,
32,
35,
40,
33,
38,
38,
22,
27,
15,
18,
19,
9,
18,
11,
6,
9,
5,
5,
7,
9,
6,
1,
0,
0,
0,
0,
0,
0,
0,
0,
0,
0,
1,
0,
1,
0,
0,
0,
0,
0,
0,
0,
0,
0,
0,
0,
0,
0,
0,
0,
0,
0,
0,
0,
0,
0,
0,
0,
1,
0,
0,
0,
0,
0,
0,
0,
0,
0,
0,
0,
0,
0,
0,
0,
0,
0,
0,
0,
0,
0,
0,
0,
0,
0,
0,
0,
0,
0,
0,
0,
0,
0,
0,
0,
0,
0,
0,
0,
0,
0,
0,
0,
0,
0,
0,
0,
0,
0,
0,
0,
0,
0,
0,
0,
0,
0,
0,
0,
0,
0,
0,
0,
0,
0,
0,
0,
0,
0,
0,
0,
0,
0,
0,
0,
0,
0,
0,
0,
0,
0,
0,
0,
0,
0,
0,
0,
0,
0,
0,
0,
0,
0,
0,
0,
0,
0,
0,
0,
0,
0,
0,
0,
0,
0,
0,
0,
0,
0,
0,
0,
0,
0,
0,
0,
#ENDOFDATA   :

File: GM IIIB K412[1][4].msa
#FORMAT      : EMSA/MAS Spectral Data File
#VERSION     : 1.0
#TITLE       : GM IIIB K412[1][all]
#DATE        : 10-SEP-2025
#TIME        : 14:18
#OWNER       : Unknown
#NPOINTS     : 4096
#NCOLUMNS    : 1
#XUNITS      : eV
#YUNITS      : counts
#DATATYPE    : Y
#XPERCHAN    : 9.99778
#OFFSET      : 1.69135
#BEAMKV      : 20
#SIGNALTYPE  : EDS
#ELEVANGLE   : 35
#AZIMANGLE   : 0
#LIVETIME    : 240.14
#REALTIME    : 258.359
#PROBECUR    : 1.22574
#TAUWIND     : 0
#TDEADLYR    : 0
#TACTLYR     : 0.045
#TALWIND     : 0.025
#CHOFFSET    : 0.0
#XLABEL      : Energy (eV)
#YLABEL      : Counts
#XPOSITION   : 3.15456
#YPOSITION   : 4.82671
#ZPOSITION   : 34.06144
#EDSDET      : SD
##SPECIMEN   : GM IIIB K412[1][all]
##D2STDCMP   : K412,(O:42.7576),(Mg:11.6568),(Al:4.9062),(Si:21.1983),(Ca:10.8991),(Fe:7.742)
##DET_HASH   : 12273538-fd48-a23f-0a19-f1e6fa85caef
##CALIB_HASH : 6abaa72c-aa41-8738-0be9-f592914732f3
##WORKING    : 15.0 mm
##DET_NAME   : EDAX All
##DET_MODE   : MediumLE
#SPECTRUM    :
18,
198,
7830,
6837,
56037,
9583,
3184,
3810,
5082,
101096,
6996,
17892,
57965,
27801,
3753,
3019,
3618,
3242,
3187,
3143,
3034,
3111,
2925,
2819,
2765,
3211,
33425,
12377,
3642,
6800,
2193,
1966,
2180,
1897,
1767,
1862,
1826,
1672,
1569,
1649,
1465,
1371,
1612,
1417,
1414,
5330,
13893,
1324,
1147,
1225,
2538,
1740,
1038,
1033,
953,
888,
862,
890,
816,
822,
807,
708,
704,
681,
675,
620,
579,
590,
577,
610,
529,
535,
528,
446,
461,
471,
447,
433,
407,
389,
364,
339,
336,
340,
355,
286,
326,
275,
259,
273,
274,
234,
220,
203,
195,
205,
193,
171,
172,
157,
141,
144,
124,
132,
95,
115,
94,
105,
86,
85,
70,
80,
79,
71,
56,
64,
54,
38,
47,
44,
42,
36,
43,
45,
30,
28,
25,
30,
24,
23,
20,
17,
19,
12,
11,
12,
4,
12,
4,
5,
4,
3,
1,
0,
0,
0,
0,
1,
0,
0,
0,
0,
0,
0,
0,
0,
0,
0,
0,
0,
0,
0,
0,
0,
0,
1,
0,
0,
0,
0,
0,
0,
0,
0,
0,
0,
0,
0,
0,
0,
0,
0,
0,
0,
0,
0,
0,
0,
0,
0,
0,
0,
0,
0,
0,
0,
0,
0,
0,
0,
0,
0,
0,
0,
0,
0,
0,
0,
0,
0,
0,
0,
0,
0,
0,
0,
0,
0,
0,
0,
0,
0,
0,
0,
0,
0,
0,
0,
0,
0,
0,
0,
0,
0,
0,
0,
0,
0,
0,
0,
0,
0,
0,
0,
0,
0,
0,
0,
0,
0,
0,
0,
0,
0,
0,
0,
0,
0,
0,
0,
0,
0,
0,
0,
0,
0,
0,
0,
0,
0,
0,
0,
0,
0,
0,
0,
0,
0,
0,
0,
0,
0,
0,
0,
0,
0,
0,
0,
0,
0,
0,
0,
0,
0,
#ENDOFDATA   :

File: GM IIIB K453[2][4].msa
#FORMAT      : EMSA/MAS Spectral Data File
#VERSION     : 1.0
#TITLE       : GM IIIB K453[2][all]
#DATE        : 10-SEP-2025
#TIME        : 14:13
#OWNER       : Unknown
#NPOINTS     : 4096
#NCOLUMNS    : 1
#XUNITS      : eV
#YUNITS      : counts
#DATATYPE    : Y
#XPERCHAN    : 9.99778
#OFFSET      : 1.69135
#BEAMKV      : 20
#SIGNALTYPE  : EDS
#ELEVANGLE   : 35
#AZIMANGLE   : 0
#LIVETIME    : 240.219
#REALTIME    : 266.664
#PROBECUR    : 1.22574
#TAUWIND     : 0
#TDEADLYR    : 0
#TACTLYR     : 0.045
#TALWIND     : 0.025
#CHOFFSET    : 0.0
#XLABEL      : Energy (eV)
#YLABEL      : Counts
#XPOSITION   : -1.10927
#YPOSITION   : 4.00291
#ZPOSITION   : 34.06144
#EDSDET      : SD
##SPECIMEN   : GM IIIB K453[2][all]
##D2STDCMP   : K453,(O:16.84),(Ge:28.65),(Pb:54.51)
##DET_HASH   : 12273538-fd48-a23f-0a19-f1e6fa85caef
##CALIB_HASH : 6abaa72c-aa41-8738-0be9-f592914732f3
##WORKING    : 15.0 mm
##DET_NAME   : EDAX All
##DET_MODE   : MediumLE
#SPECTRUM    :
30,
540,
11651,
7482,
25104,
8815,
8160,
10649,
27855,
40139,
7671,
8202,
9002,
16806,
8770,
9134,
17823,
127985,
22920,
12405,
5905,
6587,
7871,
6030,
5863,
5935,
5819,
5726,
5495,
5496,
5532,
5311,
5899,
5381,
5387,
5183,
5033,
4917,
4967,
4690,
4576,
4551,
4566,
4302,
4241,
4192,
4437,
4084,
3894,
3830,
3747,
3745,
3578,
3764,
3371,
3268,
3166,
3090,
3104,
2995,
2957,
2787,
2850,
2572,
2624,
2830,
2966,
2411,
2386,
2576,
14783,
14569,
2391,
2146,
3083,
10659,
6027,
2030,
3967,
3162,
1677,
1618,
1497,
1501,
1415,
1425,
1349,
1474,
1388,
1856,
4701,
2095,
1274,
1219,
1000,
926,
888,
825,
802,
802,
739,
717,
723,
664,
660,
828,
762,
572,
576,
553,
446,
415,
383,
415,
388,
385,
356,
320,
306,
276,
269,
252,
236,
234,
213,
202,
173,
161,
164,
155,
118,
120,
99,
79,
81,
67,
67,
43,
45,
42,
27,
24,
14,
5,
3,
5,
12,
6,
2,
8,
7,
6,
5,
4,
4,
2,
6,
4,
2,
3,
5,
6,
1,
1,
3,
5,
4,
0,
1,
1,
0,
1,
4,
1,
2,
1,
0,
2,
0,
1,
2,
1,
1,
2,
2,
0,
2,
1,
0,
0,
0,
1,
1,
0,
1,
1,
1,
0,
0,
0,
0,
0,
0,
0,
0,
1,
0,
1,
1,
0,
0,
1,
0,
0,
0,
1,
0,
0,
0,
0,
0,
0,
0,
0,
0,
0,
1,
0,
0,
0,
0,
0,
0,
0,
0,
0,
0,
0,
0,
0,
0,
0,
0,
0,
0,
0,
0,
0,
0,
0,
0,
0,
0,
0,
0,
0,
0,
0,
0,
0,
0,
0,
0,
0,
0,
0,
0,
0,
0,
0,
0,
0,
0,
0,
0,
0,
0,
0,
0,
0,
0,
0,
0,
0,
0,
0,
0,
0,
0,
0,
0,
0,
0,
0,
#ENDOFDATA   :

File: GM IIIB K453[4][4].msa
#FORMAT      : EMSA/MAS Spectral Data File
#VERSION     : 1.0
#TITLE       : GM IIIB K453[4][all]
#DATE        : 10-SEP-2025
#TIME        : 14:15
#OWNER       : Unknown
#NPOINTS     : 4096
#NCOLUMNS    : 1
#XUNITS      : eV
#YUNITS      : counts
#DATATYPE    : Y
#XPERCHAN    : 9.99778
#OFFSET      : 1.69135
#BEAMKV      : 20
#SIGNALTYPE  : EDS
#ELEVANGLE   : 35
#AZIMANGLE   : 0
#LIVETIME    : 240.171
#REALTIME    : 266.61
#PROBECUR    : 1.22574
#TAUWIND     : 0
#TDEADLYR    : 0
#TACTLYR     : 0.045
#TALWIND     : 0.025
#CHOFFSET    : 0.0
#XLABEL      : Energy (eV)
#YLABEL      : Counts
#XPOSITION   : -1.16863
#YPOSITION   : 4.03046
#ZPOSITION   : 34.06144
#EDSDET      : SD
##SPECIMEN   : GM IIIB K453[4][all]
##D2STDCMP   : K453,(O:16.84),(Ge:28.65),(Pb:54.51)
##DET_HASH   : 12273538-fd48-a23f-0a19-f1e6fa85caef
##CALIB_HASH : 6abaa72c-aa41-8738-0be9-f592914732f3
##WORKING    : 15.0 mm
##DET_NAME   : EDAX All
##DET_MODE   : MediumLE
#SPECTRUM    :
27,
571,
11624,
7428,
25265,
8553,
8280,
10560,
27550,
39829,
7551,
7953,
8822,
16919,
8825,
9020,
17653,
128409,
22531,
12575,
5875,
6611,
7961,
5960,
5681,
6082,
5909,
5737,
5578,
5490,
5438,
5384,
6009,
5463,
5363,
5215,
5083,
4971,
4795,
4785,
4689,
4528,
4520,
4377,
4268,
4189,
4509,
3971,
3883,
3844,
3641,
3579,
3610,
3599,
3408,
3339,
3228,
3180,
3095,
3037,
2965,
2912,
2868,
2759,
2703,
2820,
2974,
2406,
2421,
2654,
14782,
14606,
2379,
2125,
3011,
10822,
5999,
2074,
4037,
3089,
1644,
1665,
1613,
1495,
1395,
1340,
1414,
1471,
1453,
1847,
4782,
2057,
1251,
1263,
1034,
905,
926,
869,
840,
762,
754,
716,
691,
673,
686,
829,
748,
562,
592,
534,
432,
444,
432,
380,
387,
376,
361,
322,
306,
301,
258,
265,
231,
227,
212,
210,
191,
163,
154,
146,
105,
114,
110,
88,
84,
76,
63,
59,
34,
41,
24,
24,
12,
6,
7,
11,
5,
8,
5,
3,
5,
6,
3,
3,
5,
3,
1,
1,
4,
2,
2,
1,
0,
3,
2,
0,
2,
1,
3,
0,
0,
2,
1,
3,
3,
2,
2,
3,
0,
1,
1,
1,
2,
0,
0,
2,
0,
1,
0,
0,
0,
1,
1,
1,
2,
2,
1,
0,
0,
0,
1,
0,
2,
0,
0,
1,
0,
0,
0,
0,
0,
1,
0,
0,
0,
0,
0,
0,
0,
0,
0,
0,
0,
0,
0,
0,
0,
0,
0,
1,
0,
0,
1,
0,
0,
0,
0,
0,
0,
0,
0,
0,
0,
0,
0,
0,
0,
0,
0,
0,
0,
0,
0,
0,
0,
0,
0,
0,
0,
0,
0,
0,
0,
0,
0,
0,
0,
0,
0,
0,
0,
0,
0,
0,
0,
0,
0,
0,
0,
0,
0,
0,
0,
0,
0,
0,
0,
0,
0,
0,
0,
0,
0,
0,
#ENDOFDATA   :

File: GM IIIB K456[1][4].msa
#FORMAT      : EMSA/MAS Spectral Data File
#VERSION     : 1.0
#TITLE       : GM IIIB K456[1][all]
#DATE        : 10-SEP-2025
#TIME        : 14:53
#OWNER       : Unknown
#NPOINTS     : 4096
#NCOLUMNS    : 1
#XUNITS      : eV
#YUNITS      : counts
#DATATYPE    : Y
#XPERCHAN    : 9.99778
#OFFSET      : 1.69135
#BEAMKV      : 20
#SIGNALTYPE  : EDS
#ELEVANGLE   : 35
#AZIMANGLE   : 0
#LIVETIME    : 240.323
#REALTIME    : 267.498
#PROBECUR    : 1.22592
#TAUWIND     : 0
#TDEADLYR    : 0
#TACTLYR     : 0.045
#TALWIND     : 0.025
#CHOFFSET    : 0.0
#XLABEL      : Energy (eV)
#YLABEL      : Counts
#XPOSITION   : 15.50327
#YPOSITION   : 6.98859
#ZPOSITION   : 34.06144
#EDSDET      : SD
##SPECIMEN   : GM IIIB K456[1][all]
##D2STDCMP   : K456,(O:20.43),(Si:13.45),(Pb:66.12)
##DET_HASH   : 12273538-fd48-a23f-0a19-f1e6fa85caef
##CALIB_HASH : 6abaa72c-aa41-8738-0be9-f592914732f3
##WORKING    : 15.0 mm
##DET_NAME   : EDAX All
##DET_MODE   : MediumLE
#SPECTRUM    :
23,
544,
11637,
7436,
27793,
8344,
7152,
7585,
8415,
9555,
10484,
11370,
53018,
39974,
8963,
9381,
20160,
158004,
26474,
12913,
5474,
6091,
7591,
5741,
5463,
5587,
5329,
5439,
5188,
5379,
5303,
5104,
5505,
5097,
5200,
4831,
4840,
4699,
4650,
4528,
4476,
4370,
4307,
4172,
4123,
4128,
4282,
3807,
3760,
3691,
3664,
3636,
3415,
3615,
3331,
3222,
3128,
3040,
2935,
2963,
2915,
2773,
2626,
2629,
2648,
2887,
2878,
2343,
2349,
2198,
2202,
2208,
2133,
2013,
3150,
12162,
6587,
1833,
1775,
1736,
1639,
1668,
1562,
1418,
1359,
1393,
1435,
1460,
1414,
2059,
5446,
2293,
1258,
1260,
961,
888,
833,
811,
820,
757,
687,
742,
676,
630,
611,
882,
807,
557,
587,
514,
427,
445,
406,
392,
375,
343,
297,
309,
290,
277,
253,
242,
234,
198,
205,
208,
144,
157,
152,
155,
157,
108,
108,
88,
90,
77,
59,
51,
48,
37,
30,
19,
11,
5,
9,
6,
5,
3,
0,
3,
6,
5,
5,
4,
2,
1,
5,
2,
1,
1,
1,
0,
4,
2,
1,
2,
1,
0,
0,
0,
0,
1,
0,
2,
4,
3,
2,
0,
0,
0,
1,
2,
2,
0,
2,
0,
0,
2,
0,
0,
0,
1,
2,
0,
0,
1,
0,
0,
0,
0,
0,
0,
0,
0,
0,
0,
0,
0,
0,
0,
0,
0,
0,
0,
0,
0,
0,
0,
0,
0,
1,
0,
0,
1,
0,
0,
0,
0,
0,
0,
0,
0,
0,
0,
0,
0,
0,
0,
0,
0,
0,
0,
0,
0,
0,
0,
0,
0,
0,
0,
0,
0,
0,
0,
0,
0,
0,
0,
0,
0,
0,
0,
0,
0,
0,
0,
0,
0,
0,
0,
0,
0,
0,
0,
0,
0,
0,
0,
0,
0,
0,
0,
0,
0,
0,
0,
0,
0,
0,
0,
0,
0,
0,
0,
#ENDOFDATA   :

File: GM IIIB K491[0][4].msa
#FORMAT      : EMSA/MAS Spectral Data File
#VERSION     : 1.0
#TITLE       : GM IIIB K491[0][all]
#DATE        : 10-SEP-2025
#TIME        : 15:10
#OWNER       : Unknown
#NPOINTS     : 4096
#NCOLUMNS    : 1
#XUNITS      : eV
#YUNITS      : counts
#DATATYPE    : Y
#XPERCHAN    : 9.99778
#OFFSET      : 1.69135
#BEAMKV      : 20
#SIGNALTYPE  : EDS
#ELEVANGLE   : 35
#AZIMANGLE   : 0
#LIVETIME    : 240.264
#REALTIME    : 266.797
#PROBECUR    : 1.22616
#TAUWIND     : 0
#TDEADLYR    : 0
#TACTLYR     : 0.045
#TALWIND     : 0.025
#CHOFFSET    : 0.0
#XLABEL      : Energy (eV)
#YLABEL      : Counts
#XPOSITION   : 4.01189
#YPOSITION   : 6.7894
#ZPOSITION   : 34.06144
#EDSDET      : SD
##SPECIMEN   : GM IIIB K491[0][all]
##D2STDCMP   : K491,(B:0.03),(O:16.65),(Al:0.08),(Si:0.09),(Ti:0.16),(Fe:0.18),(Ge:26.36),(Zr:0.3),(Ce:0.46),(Ta:0.59),(Pb:55.1)
##DET_HASH   : 12273538-fd48-a23f-0a19-f1e6fa85caef
##CALIB_HASH : 6abaa72c-aa41-8738-0be9-f592914732f3
##WORKING    : 15.0 mm
##DET_NAME   : EDAX All
##DET_MODE   : MediumLE
#SPECTRUM    :
29,
588,
11719,
7677,
24729,
9112,
8227,
10291,
25775,
37230,
8011,
8487,
10399,
17468,
9044,
9902,
17920,
130411,
23119,
12389,
5976,
6555,
7972,
6241,
5696,
5942,
5883,
5729,
5517,
5507,
5478,
5403,
6425,
5300,
5475,
5734,
5079,
5002,
5089,
4876,
4838,
4675,
4350,
4441,
4326,
4511,
4817,
4052,
4025,
3834,
3802,
3740,
3584,
3703,
3525,
3434,
3236,
3104,
3447,
3240,
2971,
2920,
2785,
2704,
2693,
2926,
3007,
2626,
2443,
2691,
13842,
13745,
2327,
2152,
3099,
11015,
6069,
2091,
3748,
3105,
1754,
1674,
1509,
1494,
1427,
1404,
1502,
1494,
1411,
1852,
4817,
2144,
1246,
1234,
1042,
943,
883,
810,
878,
818,
761,
715,
678,
680,
671,
884,
782,
561,
614,
552,
493,
434,
455,
417,
358,
351,
341,
351,
316,
273,
258,
271,
244,
223,
241,
209,
163,
165,
153,
152,
122,
131,
109,
100,
78,
91,
72,
57,
59,
45,
27,
33,
18,
9,
3,
5,
8,
2,
4,
2,
7,
3,
8,
6,
2,
2,
3,
7,
4,
5,
0,
3,
2,
0,
2,
1,
0,
5,
2,
3,
2,
4,
0,
2,
1,
3,
1,
3,
1,
1,
4,
1,
1,
1,
1,
0,
1,
2,
0,
1,
2,
1,
1,
2,
2,
0,
0,
1,
1,
1,
0,
0,
0,
0,
1,
0,
0,
0,
0,
0,
0,
0,
1,
0,
0,
0,
0,
0,
0,
0,
0,
1,
0,
0,
0,
0,
0,
0,
0,
0,
0,
0,
0,
0,
0,
0,
0,
0,
0,
0,
0,
0,
0,
0,
0,
0,
0,
0,
0,
0,
0,
0,
0,
0,
0,
0,
0,
0,
0,
0,
0,
0,
0,
0,
0,
0,
0,
0,
0,
0,
0,
0,
0,
0,
0,
0,
0,
0,
0,
0,
0,
0,
0,
0,
0,
0,
0,
0,
0,
0,
0,
0,
0,
0,
#ENDOFDATA   :

File: GM IIIB K491[4][4].msa
#FORMAT      : EMSA/MAS Spectral Data File
#VERSION     : 1.0
#TITLE       : GM IIIB K491[4][all]
#DATE        : 10-SEP-2025
#TIME        : 15:14
#OWNER       : Unknown
#NPOINTS     : 4096
#NCOLUMNS    : 1
#XUNITS      : eV
#YUNITS      : counts
#DATATYPE    : Y
#XPERCHAN    : 9.99778
#OFFSET      : 1.69135
#BEAMKV      : 20
#SIGNALTYPE  : EDS
#ELEVANGLE   : 35
#AZIMANGLE   : 0
#LIVETIME    : 240.193
#REALTIME    : 266.659
#PROBECUR    : 1.22616
#TAUWIND     : 0
#TDEADLYR    : 0
#TACTLYR     : 0.045
#TALWIND     : 0.025
#CHOFFSET    : 0.0
#XLABEL      : Energy (eV)
#YLABEL      : Counts
#XPOSITION   : 4.01449
#YPOSITION   : 6.72817
#ZPOSITION   : 34.06144
#EDSDET      : SD
##SPECIMEN   : GM IIIB K491[4][all]
##D2STDCMP   : K491,(B:0.03),(O:16.65),(Al:0.08),(Si:0.09),(Ti:0.16),(Fe:0.18),(Ge:26.36),(Zr:0.3),(Ce:0.46),(Ta:0.59),(Pb:55.1)
##DET_HASH   : 12273538-fd48-a23f-0a19-f1e6fa85caef
##CALIB_HASH : 6abaa72c-aa41-8738-0be9-f592914732f3
##WORKING    : 15.0 mm
##DET_NAME   : EDAX All
##DET_MODE   : MediumLE
#SPECTRUM    :
26,
567,
11779,
7522,
24510,
9063,
8325,
10326,
26056,
37188,
7873,
8504,
10556,
17507,
9019,
9959,
17973,
129705,
22976,
12598,
5819,
6617,
7859,
6088,
5747,
6019,
5875,
5751,
5635,
5615,
5531,
5431,
6526,
5538,
5642,
5647,
4922,
5107,
5292,
4948,
4814,
4722,
4481,
4507,
4367,
4534,
4838,
4044,
4038,
3897,
3839,
3789,
3605,
3851,
3530,
3344,
3269,
3170,
3484,
3127,
3008,
2992,
2824,
2702,
2617,
2982,
2991,
2675,
2550,
2650,
13960,
13629,
2331,
2095,
3118,
10974,
6123,
2114,
3793,
3081,
1716,
1635,
1464,
1515,
1424,
1347,
1402,
1423,
1495,
1879,
4887,
2125,
1259,
1212,
1033,
884,
909,
904,
852,
823,
745,
676,
681,
644,
613,
886,
792,
604,
579,
535,
468,
466,
436,
422,
345,
355,
356,
316,
343,
280,
296,
243,
219,
231,
202,
199,
214,
186,
162,
154,
134,
109,
111,
95,
100,
72,
50,
55,
52,
27,
23,
26,
15,
9,
4,
10,
12,
2,
4,
5,
5,
3,
4,
2,
3,
2,
2,
2,
2,
3,
2,
4,
5,
1,
2,
2,
5,
3,
0,
0,
3,
1,
1,
1,
2,
0,
2,
0,
3,
1,
4,
2,
1,
1,
1,
1,
2,
0,
2,
1,
0,
1,
0,
0,
1,
1,
0,
2,
2,
0,
0,
0,
0,
1,
1,
0,
0,
0,
0,
0,
0,
0,
0,
0,
0,
1,
0,
0,
0,
0,
0,
0,
1,
0,
0,
0,
0,
0,
1,
0,
0,
0,
0,
0,
0,
0,
0,
0,
0,
0,
0,
0,
0,
0,
0,
0,
0,
0,
0,
0,
0,
0,
0,
0,
0,
0,
0,
0,
0,
0,
0,
0,
0,
0,
0,
0,
0,
0,
0,
0,
0,
0,
0,
0,
0,
0,
0,
0,
0,
0,
0,
0,
0,
0,
0,
0,
0,
0,
0,
0,
0,
0,
0,
0,
#ENDOFDATA   :

File: GM IIIB K493[0][4].msa
#FORMAT      : EMSA/MAS Spectral Data File
#VERSION     : 1.0
#TITLE       : GM IIIB K493[0][all]
#DATE        : 10-SEP-2025
#TIME        : 15:16
#OWNER       : Unknown
#NPOINTS     : 4096
#NCOLUMNS    : 1
#XUNITS      : eV
#YUNITS      : counts
#DATATYPE    : Y
#XPERCHAN    : 9.99778
#OFFSET      : 1.69135
#BEAMKV      : 20
#SIGNALTYPE  : EDS
#ELEVANGLE   : 35
#AZIMANGLE   : 0
#LIVETIME    : 240.437
#REALTIME    : 267.559
#PROBECUR    : 1.22616
#TAUWIND     : 0
#TDEADLYR    : 0
#TACTLYR     : 0.045
#TALWIND     : 0.025
#CHOFFSET    : 0.0
#XLABEL      : Energy (eV)
#YLABEL      : Counts
#XPOSITION   : 1.69358
#YPOSITION   : 7.00159
#ZPOSITION   : 34.06144
#EDSDET      : SD
##SPECIMEN   : GM IIIB K493[0][all]
##D2STDCMP   : K493,(B:0.04),(O:20.63),(Al:0.11),(Si:13.04),(Ti:0.19),(Fe:0.22),(Zr:0.36),(Ce:0.55),(Ta:0.72),(Pb:64.13)
##DET_HASH   : 12273538-fd48-a23f-0a19-f1e6fa85caef
##CALIB_HASH : 6abaa72c-aa41-8738-0be9-f592914732f3
##WORKING    : 15.0 mm
##DET_NAME   : EDAX All
##DET_MODE   : MediumLE
#SPECTRUM    :
18,
514,
12100,
7459,
28532,
8560,
7081,
7747,
8401,
9577,
10386,
11623,
53508,
39408,
9235,
10164,
20033,
153452,
25636,
12869,
5555,
6300,
7691,
5744,
5388,
5586,
5329,
5526,
5055,
5384,
5262,
5100,
6348,
5162,
5450,
5405,
4651,
4692,
4795,
4425,
4611,
4336,
4245,
4180,
4138,
4259,
4641,
3804,
3753,
3692,
3621,
3505,
3317,
3631,
3304,
3229,
3062,
2995,
3284,
3018,
2784,
2742,
2707,
2631,
2468,
2802,
2886,
2495,
2386,
2355,
2145,
2207,
2052,
2028,
3053,
11916,
6414,
1902,
1744,
1703,
1686,
1593,
1545,
1461,
1367,
1310,
1406,
1436,
1377,
1924,
5332,
2296,
1213,
1233,
935,
863,
890,
799,
819,
763,
743,
690,
695,
647,
599,
908,
762,
558,
557,
506,
428,
412,
397,
417,
388,
346,
313,
287,
271,
315,
263,
247,
252,
225,
211,
200,
197,
177,
174,
133,
120,
104,
90,
93,
76,
71,
74,
61,
47,
34,
26,
20,
8,
7,
3,
7,
4,
1,
2,
3,
8,
2,
3,
2,
1,
1,
1,
1,
1,
2,
1,
3,
1,
5,
1,
3,
3,
3,
1,
2,
1,
2,
2,
2,
1,
1,
3,
1,
2,
1,
1,
1,
2,
0,
0,
1,
1,
2,
0,
0,
1,
0,
1,
0,
0,
0,
0,
2,
0,
1,
0,
1,
1,
1,
1,
0,
0,
1,
0,
1,
0,
1,
1,
0,
0,
0,
0,
0,
0,
0,
0,
0,
0,
0,
0,
0,
0,
0,
0,
0,
0,
0,
0,
0,
0,
0,
0,
0,
0,
0,
0,
0,
0,
0,
0,
0,
0,
0,
0,
0,
0,
0,
0,
0,
0,
0,
0,
0,
0,
0,
0,
0,
0,
0,
0,
0,
0,
0,
0,
0,
0,
0,
0,
0,
0,
0,
0,
0,
0,
0,
0,
0,
0,
0,
0,
0,
0,
0,
0,
0,
0,
0,
0,
0,
#ENDOFDATA   :

File: GM IIIB K493[1][4].msa
#FORMAT      : EMSA/MAS Spectral Data File
#VERSION     : 1.0
#TITLE       : GM IIIB K493[1][all]
#DATE        : 10-SEP-2025
#TIME        : 15:17
#OWNER       : Unknown
#NPOINTS     : 4096
#NCOLUMNS    : 1
#XUNITS      : eV
#YUNITS      : counts
#DATATYPE    : Y
#XPERCHAN    : 9.99778
#OFFSET      : 1.69135
#BEAMKV      : 20
#SIGNALTYPE  : EDS
#ELEVANGLE   : 35
#AZIMANGLE   : 0
#LIVETIME    : 240.382
#REALTIME    : 267.492
#PROBECUR    : 1.22616
#TAUWIND     : 0
#TDEADLYR    : 0
#TACTLYR     : 0.045
#TALWIND     : 0.025
#CHOFFSET    : 0.0
#XLABEL      : Energy (eV)
#YLABEL      : Counts
#XPOSITION   : 1.59679
#YPOSITION   : 6.97482
#ZPOSITION   : 34.06144
#EDSDET      : SD
##SPECIMEN   : GM IIIB K493[1][all]
##D2STDCMP   : K493,(B:0.04),(O:20.63),(Al:0.11),(Si:13.04),(Ti:0.19),(Fe:0.22),(Zr:0.36),(Ce:0.55),(Ta:0.72),(Pb:64.13)
##DET_HASH   : 12273538-fd48-a23f-0a19-f1e6fa85caef
##CALIB_HASH : 6abaa72c-aa41-8738-0be9-f592914732f3
##WORKING    : 15.0 mm
##DET_NAME   : EDAX All
##DET_MODE   : MediumLE
#SPECTRUM    :
22,
573,
11684,
7624,
27738,
8463,
7209,
7685,
8538,
9426,
10429,
11734,
53050,
39528,
9539,
10178,
19873,
152809,
25846,
12629,
5573,
6232,
7710,
5753,
5443,
5496,
5387,
5371,
5126,
5342,
5295,
5174,
6194,
5257,
5376,
5572,
4886,
4779,
4752,
4439,
4570,
4312,
4245,
4239,
4078,
4174,
4823,
3814,
3838,
3615,
3687,
3558,
3459,
3525,
3307,
3205,
3220,
3059,
3278,
2992,
2808,
2728,
2796,
2597,
2541,
2907,
2859,
2467,
2343,
2284,
2215,
2147,
2021,
2127,
3089,
11810,
6472,
1878,
1720,
1663,
1638,
1658,
1523,
1396,
1395,
1371,
1356,
1503,
1396,
2040,
5331,
2273,
1249,
1226,
988,
903,
848,
836,
831,
760,
753,
760,
690,
640,
659,
849,
747,
584,
609,
571,
478,
445,
389,
393,
364,
356,
346,
275,
307,
288,
238,
236,
248,
218,
213,
189,
158,
167,
152,
135,
105,
110,
100,
102,
73,
68,
54,
50,
51,
37,
27,
26,
16,
7,
8,
6,
3,
2,
4,
3,
8,
5,
2,
5,
5,
1,
1,
1,
1,
1,
0,
0,
2,
0,
2,
0,
0,
1,
2,
1,
1,
0,
0,
0,
1,
1,
0,
1,
3,
0,
0,
0,
1,
2,
0,
1,
0,
0,
2,
2,
1,
0,
0,
2,
0,
0,
1,
0,
0,
0,
1,
0,
0,
0,
0,
0,
0,
0,
0,
1,
1,
1,
1,
0,
0,
1,
0,
0,
0,
0,
0,
0,
0,
0,
0,
0,
0,
0,
0,
0,
0,
0,
0,
0,
0,
0,
0,
0,
0,
0,
0,
0,
0,
0,
0,
0,
0,
0,
0,
0,
0,
0,
0,
0,
1,
0,
0,
0,
0,
0,
0,
0,
0,
0,
0,
0,
0,
0,
0,
0,
0,
0,
0,
0,
0,
0,
0,
0,
0,
0,
0,
0,
0,
0,
0,
0,
0,
0,
0,
0,
0,
0,
0,
0,
#ENDOFDATA   :

File: GM IIIB K493[2][4].msa
#FORMAT      : EMSA/MAS Spectral Data File
#VERSION     : 1.0
#TITLE       : GM IIIB K493[2][all]
#DATE        : 10-SEP-2025
#TIME        : 15:18
#OWNER       : Unknown
#NPOINTS     : 4096
#NCOLUMNS    : 1
#XUNITS      : eV
#YUNITS      : counts
#DATATYPE    : Y
#XPERCHAN    : 9.99778
#OFFSET      : 1.69135
#BEAMKV      : 20
#SIGNALTYPE  : EDS
#ELEVANGLE   : 35
#AZIMANGLE   : 0
#LIVETIME    : 240.3862
#REALTIME    : 267.497
#PROBECUR    : 1.22616
#TAUWIND     : 0
#TDEADLYR    : 0
#TACTLYR     : 0.045
#TALWIND     : 0.025
#CHOFFSET    : 0.0
#XLABEL      : Energy (eV)
#YLABEL      : Counts
#XPOSITION   : 1.81714
#YPOSITION   : 7.04484
#ZPOSITION   : 34.06144
#EDSDET      : SD
##SPECIMEN   : GM IIIB K493[2][all]
##D2STDCMP   : K493,(B:0.04),(O:20.63),(Al:0.11),(Si:13.04),(Ti:0.19),(Fe:0.22),(Zr:0.36),(Ce:0.55),(Ta:0.72),(Pb:64.13)
##DET_HASH   : 12273538-fd48-a23f-0a19-f1e6fa85caef
##CALIB_HASH : 6abaa72c-aa41-8738-0be9-f592914732f3
##WORKING    : 15.0 mm
##DET_NAME   : EDAX All
##DET_MODE   : MediumLE
#SPECTRUM    :
26,
574,
12067,
7432,
28350,
8592,
7240,
7575,
8460,
9419,
10301,
11945,
53634,
39456,
9343,
10257,
19889,
152461,
25888,
12753,
5532,
6107,
7592,
5837,
5434,
5576,
5371,
5325,
5229,
5426,
5257,
5079,
6179,
5113,
5359,
5467,
4795,
4851,
4715,
4448,
4607,
4459,
4277,
4155,
4075,
4152,
4729,
3884,
3799,
3673,
3808,
3502,
3412,
3608,
3493,
3273,
3114,
3084,
3306,
3012,
2879,
2659,
2722,
2687,
2535,
2914,
2966,
2451,
2417,
2332,
2169,
2106,
1972,
2009,
3080,
11908,
6356,
1940,
1748,
1657,
1712,
1609,
1575,
1537,
1377,
1282,
1406,
1490,
1375,
1973,
5304,
2308,
1282,
1142,
1013,
929,
875,
809,
797,
749,
718,
676,
704,
671,
603,
874,
759,
597,
595,
561,
491,
444,
395,
387,
335,
333,
349,
294,
293,
275,
262,
251,
263,
220,
180,
198,
178,
197,
139,
135,
123,
113,
115,
90,
92,
95,
63,
50,
47,
42,
28,
16,
15,
2,
4,
5,
4,
3,
4,
7,
4,
6,
4,
3,
0,
3,
2,
1,
2,
2,
2,
3,
0,
1,
0,
1,
5,
1,
3,
0,
0,
1,
1,
1,
3,
4,
3,
1,
1,
0,
1,
1,
0,
1,
0,
0,
0,
1,
0,
1,
2,
0,
0,
0,
2,
0,
0,
0,
0,
0,
1,
0,
0,
0,
0,
0,
0,
0,
0,
0,
0,
0,
0,
0,
0,
0,
0,
0,
0,
1,
0,
0,
0,
0,
0,
0,
0,
0,
0,
0,
0,
0,
0,
0,
0,
0,
0,
0,
0,
0,
0,
0,
0,
0,
0,
0,
0,
0,
0,
0,
0,
0,
0,
0,
0,
0,
0,
0,
0,
0,
0,
0,
0,
0,
0,
0,
0,
0,
0,
0,
0,
0,
0,
0,
0,
0,
0,
0,
0,
0,
0,
0,
0,
0,
0,
0,
0,
0,
0,
0,
0,
0,
0,
0,
#ENDOFDATA   :

File: GM IIIB K493[3][4].msa
#FORMAT      : EMSA/MAS Spectral Data File
#VERSION     : 1.0
#TITLE       : GM IIIB K493[3][all]
#DATE        : 10-SEP-2025
#TIME        : 15:19
#OWNER       : Unknown
#NPOINTS     : 4096
#NCOLUMNS    : 1
#XUNITS      : eV
#YUNITS      : counts
#DATATYPE    : Y
#XPERCHAN    : 9.99778
#OFFSET      : 1.69135
#BEAMKV      : 20
#SIGNALTYPE  : EDS
#ELEVANGLE   : 35
#AZIMANGLE   : 0
#LIVETIME    : 240.397
#REALTIME    : 267.498
#PROBECUR    : 1.22616
#TAUWIND     : 0
#TDEADLYR    : 0
#TACTLYR     : 0.045
#TALWIND     : 0.025
#CHOFFSET    : 0.0
#XLABEL      : Energy (eV)
#YLABEL      : Counts
#XPOSITION   : 1.743
#YPOSITION   : 7.01806
#ZPOSITION   : 34.06144
#EDSDET      : SD
##SPECIMEN   : GM IIIB K493[3][all]
##D2STDCMP   : K493,(B:0.04),(O:20.63),(Al:0.11),(Si:13.04),(Ti:0.19),(Fe:0.22),(Zr:0.36),(Ce:0.55),(Ta:0.72),(Pb:64.13)
##DET_HASH   : 12273538-fd48-a23f-0a19-f1e6fa85caef
##CALIB_HASH : 6abaa72c-aa41-8738-0be9-f592914732f3
##WORKING    : 15.0 mm
##DET_NAME   : EDAX All
##DET_MODE   : MediumLE
#SPECTRUM    :
28,
582,
11806,
7598,
28068,
8528,
7302,
7813,
8525,
9433,
10313,
11437,
53293,
39651,
9458,
10241,
19808,
153530,
25437,
12804,
5507,
6224,
7511,
5676,
5379,
5640,
5311,
5356,
5085,
5311,
5288,
5002,
6214,
5018,
5327,
5528,
4835,
4728,
4802,
4471,
4589,
4383,
4241,
4213,
4055,
4128,
4673,
3726,
3691,
3582,
3605,
3612,
3372,
3520,
3444,
3255,
3105,
2957,
3366,
2891,
2761,
2855,
2683,
2557,
2512,
2827,
2930,
2500,
2375,
2431,
2138,
2079,
2109,
2119,
3008,
11714,
6404,
1898,
1804,
1648,
1644,
1625,
1566,
1469,
1429,
1380,
1362,
1510,
1389,
2076,
5283,
2296,
1273,
1289,
1016,
915,
859,
814,
818,
772,
732,
721,
665,
666,
640,
878,
801,
559,
626,
524,
419,
454,
376,
373,
375,
347,
393,
299,
280,
259,
251,
218,
232,
222,
194,
188,
185,
179,
146,
133,
129,
111,
92,
92,
94,
68,
73,
64,
47,
33,
24,
21,
7,
6,
3,
5,
7,
2,
3,
3,
4,
3,
5,
6,
4,
4,
4,
1,
3,
2,
4,
2,
2,
3,
2,
2,
2,
0,
0,
1,
2,
1,
1,
0,
1,
3,
2,
2,
0,
2,
0,
0,
1,
3,
0,
2,
2,
0,
0,
0,
0,
1,
2,
0,
1,
1,
0,
0,
0,
0,
1,
0,
0,
0,
1,
2,
0,
0,
0,
1,
1,
1,
0,
0,
0,
0,
1,
0,
0,
0,
0,
0,
0,
0,
0,
1,
0,
0,
0,
0,
0,
0,
0,
0,
0,
0,
0,
0,
0,
0,
0,
0,
0,
0,
0,
0,
0,
0,
0,
0,
0,
0,
0,
0,
0,
0,
0,
0,
0,
0,
0,
0,
0,
0,
0,
0,
0,
0,
0,
0,
0,
0,
0,
0,
0,
0,
0,
0,
0,
0,
0,
0,
0,
0,
0,
0,
0,
0,
0,
0,
0,
0,
0,
0,
#ENDOFDATA   :