Folder: spex_quant/N132962/Quantification/20 keV/Glass Mount IIIB (part 5)

File: GM IIIB K493[4][4].msa
#FORMAT      : EMSA/MAS Spectral Data File
#VERSION     : 1.0
#TITLE       : GM IIIB K493[4][all]
#DATE        : 10-SEP-2025
#TIME        : 15:20
#OWNER       : Unknown
#NPOINTS     : 4096
#NCOLUMNS    : 1
#XUNITS      : eV
#YUNITS      : counts
#DATATYPE    : Y
#XPERCHAN    : 9.99778
#OFFSET      : 1.69135
#BEAMKV      : 20
#SIGNALTYPE  : EDS
#ELEVANGLE   : 35
#AZIMANGLE   : 0
#LIVETIME    : 240.297
#REALTIME    : 267.376
#PROBECUR    : 1.22616
#TAUWIND     : 0
#TDEADLYR    : 0
#TACTLYR     : 0.045
#TALWIND     : 0.025
#CHOFFSET    : 0.0
#XLABEL      : Energy (eV)
#YLABEL      : Counts
#XPOSITION   : 1.535
#YPOSITION   : 6.96658
#ZPOSITION   : 34.06144
#EDSDET      : SD
##SPECIMEN   : GM IIIB K493[4][all]
##D2STDCMP   : K493,(B:0.04),(O:20.63),(Al:0.11),(Si:13.04),(Ti:0.19),(Fe:0.22),(Zr:0.36),(Ce:0.55),(Ta:0.72),(Pb:64.13)
##DET_HASH   : 12273538-fd48-a23f-0a19-f1e6fa85caef
##CALIB_HASH : 6abaa72c-aa41-8738-0be9-f592914732f3
##WORKING    : 15.0 mm
##DET_NAME   : EDAX All
##DET_MODE   : MediumLE
#SPECTRUM    :
22,
527,
11811,
7603,
27778,
8499,
7345,
7872,
8428,
9452,
10361,
11705,
53042,
39228,
9330,
10425,
19962,
152903,
25608,
12628,
5558,
6025,
7533,
5799,
5346,
5615,
5432,
5317,
5133,
5362,
5401,
5145,
6230,
5234,
5254,
5473,
4779,
4746,
4780,
4567,
4575,
4333,
4461,
4288,
4121,
4215,
4646,
3804,
3640,
3653,
3663,
3514,
3332,
3484,
3343,
3175,
2975,
2966,
3318,
2998,
2824,
2726,
2773,
2674,
2631,
2843,
2904,
2603,
2401,
2327,
2161,
2167,
2045,
2056,
3123,
11783,
6436,
1930,
1731,
1659,
1656,
1642,
1527,
1458,
1351,
1346,
1381,
1537,
1430,
1945,
5305,
2253,
1226,
1157,
947,
938,
848,
838,
843,
785,
709,
709,
680,
604,
622,
868,
755,
571,
556,
529,
454,
400,
440,
411,
361,
334,
316,
345,
287,
261,
261,
245,
246,
202,
210,
190,
162,
174,
151,
126,
134,
120,
101,
69,
100,
75,
61,
59,
52,
35,
28,
16,
14,
8,
1,
1,
6,
2,
2,
5,
3,
3,
4,
3,
3,
5,
3,
4,
3,
4,
0,
5,
0,
0,
1,
4,
4,
2,
4,
2,
0,
3,
0,
0,
1,
0,
2,
0,
1,
0,
0,
0,
2,
1,
3,
0,
0,
2,
3,
1,
0,
0,
0,
0,
1,
3,
1,
0,
2,
0,
0,
1,
0,
1,
0,
0,
1,
0,
1,
0,
0,
0,
0,
0,
0,
0,
1,
0,
0,
0,
1,
0,
0,
0,
0,
0,
0,
0,
0,
0,
0,
0,
0,
0,
1,
0,
0,
0,
0,
0,
0,
0,
0,
0,
0,
0,
0,
0,
0,
0,
0,
0,
0,
0,
0,
0,
0,
0,
0,
0,
0,
0,
0,
0,
0,
0,
0,
0,
0,
0,
0,
0,
0,
0,
0,
0,
0,
0,
0,
0,
0,
0,
0,
0,
0,
0,
0,
0,
0,
0,
0,
0,
0,
0,
#ENDOFDATA   :

File: GM IIIB K497[1][4].msa
#FORMAT      : EMSA/MAS Spectral Data File
#VERSION     : 1.0
#TITLE       : GM IIIB K497[1][all]
#DATE        : 11-SEP-2025
#TIME        : 09:38
#OWNER       : Unknown
#NPOINTS     : 4096
#NCOLUMNS    : 1
#XUNITS      : eV
#YUNITS      : counts
#DATATYPE    : Y
#XPERCHAN    : 9.99778
#OFFSET      : 1.69135
#BEAMKV      : 20
#SIGNALTYPE  : EDS
#ELEVANGLE   : 35
#AZIMANGLE   : 0
#LIVETIME    : 240.151
#REALTIME    : 258.851
#PROBECUR    : 1.22303
#TAUWIND     : 0
#TDEADLYR    : 0
#TACTLYR     : 0.045
#TALWIND     : 0.025
#CHOFFSET    : 0.0
#XLABEL      : Energy (eV)
#YLABEL      : Counts
#XPOSITION   : 12.88194
#YPOSITION   : 10.19038
#ZPOSITION   : 34.00161
#EDSDET      : SD
##SPECIMEN   : GM IIIB K497[1][all]
##D2STDCMP   : K497,(B:0.05),(O:52.45),(Mg:5.21),(Al:5.78),(Si:0.13),(P:33.18),(Ti:0.21),(Fe:0.24),(Zr:0.4),(Ce:0.62),(Ta:0.8),(Pb:0.92)
##DET_HASH   : 12273538-fd48-a23f-0a19-f1e6fa85caef
##CALIB_HASH : 6abaa72c-aa41-8738-0be9-f592914732f3
##WORKING    : 15.0 mm
##DET_NAME   : EDAX All
##DET_MODE   : MediumLE
#SPECTRUM    :
22,
288,
10413,
9480,
77626,
2946,
3298,
4213,
5058,
64746,
8334,
23297,
7496,
7066,
114516,
33035,
3388,
4076,
3671,
2718,
2530,
2553,
2396,
2532,
2423,
2446,
2584,
2277,
2140,
2439,
1944,
1918,
2531,
1864,
1941,
2136,
1550,
1539,
1690,
1390,
1520,
1348,
1233,
1235,
1189,
1249,
1537,
1054,
1015,
1003,
977,
980,
915,
900,
914,
803,
757,
814,
1046,
761,
654,
675,
605,
623,
601,
554,
596,
636,
550,
551,
487,
465,
438,
455,
445,
509,
435,
375,
342,
359,
320,
303,
285,
297,
298,
247,
253,
234,
208,
224,
242,
228,
198,
186,
170,
167,
141,
151,
153,
125,
118,
120,
110,
111,
112,
85,
91,
80,
62,
80,
59,
53,
77,
55,
54,
56,
41,
47,
28,
24,
33,
32,
44,
23,
25,
26,
26,
17,
13,
15,
19,
11,
5,
10,
8,
1,
3,
1,
2,
4,
0,
2,
2,
0,
0,
0,
0,
1,
0,
0,
0,
0,
0,
0,
0,
2,
0,
0,
0,
0,
0,
0,
0,
0,
0,
0,
0,
0,
0,
0,
0,
0,
0,
0,
0,
0,
0,
0,
0,
0,
0,
0,
0,
0,
0,
0,
0,
0,
0,
0,
0,
0,
0,
0,
0,
0,
0,
0,
0,
0,
0,
0,
0,
0,
0,
0,
0,
0,
0,
0,
0,
0,
0,
0,
0,
0,
0,
0,
0,
0,
0,
0,
0,
0,
0,
0,
0,
0,
0,
0,
0,
0,
0,
0,
0,
0,
0,
0,
0,
0,
0,
0,
0,
0,
0,
0,
0,
0,
0,
0,
0,
0,
0,
0,
0,
0,
0,
0,
0,
0,
0,
0,
0,
0,
0,
0,
0,
0,
0,
0,
0,
0,
0,
0,
0,
0,
0,
0,
0,
0,
0,
0,
0,
0,
0,
0,
0,
0,
0,
0,
0,
0,
0,
0,
#ENDOFDATA   :

File: GM IIIB K497[3][4].msa
#FORMAT      : EMSA/MAS Spectral Data File
#VERSION     : 1.0
#TITLE       : GM IIIB K497[3][all]
#DATE        : 11-SEP-2025
#TIME        : 09:41
#OWNER       : Unknown
#NPOINTS     : 4096
#NCOLUMNS    : 1
#XUNITS      : eV
#YUNITS      : counts
#DATATYPE    : Y
#XPERCHAN    : 9.99778
#OFFSET      : 1.69135
#BEAMKV      : 20
#SIGNALTYPE  : EDS
#ELEVANGLE   : 35
#AZIMANGLE   : 0
#LIVETIME    : 240.131
#REALTIME    : 258.868
#PROBECUR    : 1.22303
#TAUWIND     : 0
#TDEADLYR    : 0
#TACTLYR     : 0.045
#TALWIND     : 0.025
#CHOFFSET    : 0.0
#XLABEL      : Energy (eV)
#YLABEL      : Counts
#XPOSITION   : 12.9481
#YPOSITION   : 10.27219
#ZPOSITION   : 34.00161
#EDSDET      : SD
##SPECIMEN   : GM IIIB K497[3][all]
##D2STDCMP   : K497,(B:0.05),(O:52.45),(Mg:5.21),(Al:5.78),(Si:0.13),(P:33.18),(Ti:0.21),(Fe:0.24),(Zr:0.4),(Ce:0.62),(Ta:0.8),(Pb:0.92)
##DET_HASH   : 12273538-fd48-a23f-0a19-f1e6fa85caef
##CALIB_HASH : 6abaa72c-aa41-8738-0be9-f592914732f3
##WORKING    : 15.0 mm
##DET_NAME   : EDAX All
##DET_MODE   : MediumLE
#SPECTRUM    :
32,
280,
10223,
9233,
76854,
3078,
3323,
4048,
5028,
63558,
8270,
23485,
7514,
6997,
115587,
33470,
3324,
4191,
3717,
2776,
2531,
2607,
2422,
2567,
2482,
2440,
2594,
2258,
2125,
2441,
1896,
1840,
2604,
1855,
1978,
2183,
1568,
1599,
1713,
1513,
1549,
1254,
1279,
1295,
1262,
1289,
1659,
1117,
1015,
990,
1099,
947,
867,
986,
931,
839,
886,
730,
1085,
763,
716,
679,
702,
623,
666,
584,
617,
645,
539,
579,
530,
480,
412,
431,
457,
553,
442,
404,
425,
331,
333,
340,
337,
285,
285,
272,
242,
281,
235,
244,
254,
247,
188,
190,
157,
183,
156,
164,
156,
139,
138,
117,
120,
133,
115,
92,
82,
84,
86,
80,
64,
64,
66,
55,
58,
56,
46,
43,
41,
46,
41,
31,
32,
37,
26,
28,
18,
20,
6,
12,
12,
9,
11,
11,
14,
6,
5,
9,
3,
2,
2,
2,
1,
0,
0,
1,
0,
0,
0,
0,
0,
0,
0,
0,
0,
0,
0,
0,
0,
0,
0,
0,
0,
0,
0,
0,
1,
0,
0,
0,
0,
0,
0,
1,
0,
0,
0,
0,
0,
0,
0,
0,
0,
0,
0,
0,
0,
0,
0,
0,
0,
0,
0,
0,
0,
0,
0,
0,
0,
0,
0,
0,
0,
0,
0,
0,
0,
0,
0,
0,
0,
0,
0,
0,
0,
0,
0,
0,
0,
0,
0,
0,
0,
0,
0,
0,
0,
0,
0,
0,
0,
0,
0,
0,
0,
0,
0,
0,
0,
0,
0,
0,
0,
0,
0,
0,
0,
0,
0,
0,
0,
0,
0,
0,
0,
0,
0,
0,
0,
0,
0,
0,
0,
0,
0,
0,
0,
0,
0,
0,
0,
0,
0,
0,
0,
0,
0,
0,
0,
0,
0,
0,
0,
0,
0,
0,
0,
0,
0,
0,
0,
0,
0,
0,
#ENDOFDATA   :

File: GM IIIB K497[5][4].msa
#FORMAT      : EMSA/MAS Spectral Data File
#VERSION     : 1.0
#TITLE       : GM IIIB K497[5][all]
#DATE        : 11-SEP-2025
#TIME        : 09:43
#OWNER       : Unknown
#NPOINTS     : 4096
#NCOLUMNS    : 1
#XUNITS      : eV
#YUNITS      : counts
#DATATYPE    : Y
#XPERCHAN    : 9.99778
#OFFSET      : 1.69135
#BEAMKV      : 20
#SIGNALTYPE  : EDS
#ELEVANGLE   : 35
#AZIMANGLE   : 0
#LIVETIME    : 240.166
#REALTIME    : 258.916
#PROBECUR    : 1.22337
#TAUWIND     : 0
#TDEADLYR    : 0
#TACTLYR     : 0.045
#TALWIND     : 0.025
#CHOFFSET    : 0.0
#XLABEL      : Energy (eV)
#YLABEL      : Counts
#XPOSITION   : 12.90992
#YPOSITION   : 10.29446
#ZPOSITION   : 34.00162
#EDSDET      : SD
##SPECIMEN   : GM IIIB K497[5][all]
##D2STDCMP   : K497,(B:0.05),(O:52.45),(Mg:5.21),(Al:5.78),(Si:0.13),(P:33.18),(Ti:0.21),(Fe:0.24),(Zr:0.4),(Ce:0.62),(Ta:0.8),(Pb:0.92)
##DET_HASH   : 12273538-fd48-a23f-0a19-f1e6fa85caef
##CALIB_HASH : 6abaa72c-aa41-8738-0be9-f592914732f3
##WORKING    : 15.0 mm
##DET_NAME   : EDAX All
##DET_MODE   : MediumLE
#SPECTRUM    :
19,
342,
12388,
8994,
74292,
2881,
3296,
3953,
5027,
63982,
8337,
23659,
7517,
6938,
116397,
33087,
3303,
4156,
3611,
2747,
2601,
2658,
2510,
2497,
2474,
2466,
2663,
2292,
2191,
2448,
1961,
1880,
2712,
1849,
2027,
2251,
1637,
1627,
1678,
1490,
1524,
1405,
1278,
1298,
1168,
1332,
1642,
1089,
1092,
1029,
1095,
1016,
969,
950,
899,
814,
779,
808,
1064,
814,
674,
722,
691,
594,
617,
597,
619,
713,
578,
581,
534,
464,
480,
530,
441,
515,
475,
429,
425,
362,
332,
318,
304,
314,
295,
259,
276,
265,
249,
221,
269,
249,
203,
198,
184,
196,
158,
180,
154,
139,
124,
103,
144,
136,
101,
91,
107,
85,
74,
83,
71,
79,
70,
72,
53,
56,
52,
52,
46,
52,
35,
35,
31,
27,
20,
30,
19,
22,
28,
13,
13,
12,
11,
12,
10,
10,
6,
4,
4,
0,
2,
3,
0,
0,
0,
0,
0,
0,
0,
0,
0,
0,
0,
0,
0,
0,
0,
1,
0,
0,
1,
0,
0,
0,
0,
0,
0,
0,
0,
0,
0,
0,
0,
0,
0,
0,
0,
0,
0,
0,
0,
0,
0,
0,
0,
0,
0,
0,
0,
0,
0,
0,
0,
0,
0,
0,
0,
0,
0,
0,
0,
0,
0,
0,
0,
0,
0,
0,
0,
0,
0,
0,
0,
0,
0,
0,
0,
0,
0,
0,
0,
0,
0,
0,
0,
0,
0,
0,
0,
0,
0,
0,
0,
0,
0,
0,
0,
0,
0,
0,
0,
0,
0,
0,
0,
0,
0,
0,
0,
0,
0,
0,
0,
0,
0,
0,
0,
0,
0,
0,
0,
0,
0,
0,
0,
0,
0,
0,
0,
0,
0,
0,
0,
0,
0,
0,
0,
0,
0,
0,
0,
0,
0,
0,
0,
0,
0,
0,
0,
0,
0,
0,
0,
0,
#ENDOFDATA   :

File: GM IIIB K497[6][4].msa
#FORMAT      : EMSA/MAS Spectral Data File
#VERSION     : 1.0
#TITLE       : GM IIIB K497[6][all]
#DATE        : 11-SEP-2025
#TIME        : 09:44
#OWNER       : Unknown
#NPOINTS     : 4096
#NCOLUMNS    : 1
#XUNITS      : eV
#YUNITS      : counts
#DATATYPE    : Y
#XPERCHAN    : 9.99778
#OFFSET      : 1.69135
#BEAMKV      : 20
#SIGNALTYPE  : EDS
#ELEVANGLE   : 35
#AZIMANGLE   : 0
#LIVETIME    : 240.153
#REALTIME    : 258.985
#PROBECUR    : 1.22337
#TAUWIND     : 0
#TDEADLYR    : 0
#TACTLYR     : 0.045
#TALWIND     : 0.025
#CHOFFSET    : 0.0
#XLABEL      : Energy (eV)
#YLABEL      : Counts
#XPOSITION   : 12.87953
#YPOSITION   : 10.27209
#ZPOSITION   : 34.00161
#EDSDET      : SD
##SPECIMEN   : GM IIIB K497[6][all]
##D2STDCMP   : K497,(B:0.05),(O:52.45),(Mg:5.21),(Al:5.78),(Si:0.13),(P:33.18),(Ti:0.21),(Fe:0.24),(Zr:0.4),(Ce:0.62),(Ta:0.8),(Pb:0.92)
##DET_HASH   : 12273538-fd48-a23f-0a19-f1e6fa85caef
##CALIB_HASH : 6abaa72c-aa41-8738-0be9-f592914732f3
##WORKING    : 15.0 mm
##DET_NAME   : EDAX All
##DET_MODE   : MediumLE
#SPECTRUM    :
20,
249,
10487,
9007,
75770,
2922,
3287,
4142,
5099,
64027,
8369,
23809,
7436,
6832,
116062,
33719,
3382,
4186,
3701,
2763,
2614,
2597,
2505,
2536,
2503,
2443,
2597,
2355,
2230,
2470,
1905,
1884,
2731,
1758,
1949,
2172,
1529,
1675,
1754,
1510,
1572,
1385,
1368,
1328,
1257,
1356,
1632,
1122,
1089,
1023,
983,
1004,
931,
935,
862,
814,
782,
806,
1032,
828,
714,
682,
663,
641,
581,
634,
643,
710,
634,
589,
474,
468,
458,
446,
450,
543,
438,
401,
393,
351,
390,
304,
326,
303,
272,
280,
286,
259,
264,
262,
270,
205,
223,
210,
195,
166,
157,
169,
195,
167,
130,
120,
119,
125,
109,
105,
101,
102,
87,
78,
79,
94,
76,
62,
68,
58,
50,
49,
49,
33,
44,
44,
41,
28,
26,
26,
23,
17,
23,
15,
20,
17,
11,
17,
5,
9,
13,
7,
5,
5,
5,
3,
1,
0,
0,
1,
0,
0,
0,
1,
0,
0,
0,
0,
0,
0,
0,
0,
0,
0,
0,
0,
0,
0,
0,
0,
0,
0,
0,
0,
0,
0,
0,
0,
0,
0,
0,
0,
0,
0,
0,
0,
0,
0,
0,
0,
0,
0,
0,
0,
0,
0,
0,
0,
0,
0,
0,
0,
0,
0,
0,
0,
0,
0,
1,
0,
0,
0,
0,
0,
0,
0,
0,
0,
0,
0,
0,
0,
0,
0,
0,
0,
0,
0,
0,
0,
0,
0,
0,
0,
0,
0,
0,
0,
0,
0,
0,
0,
0,
0,
0,
0,
0,
0,
0,
0,
0,
0,
0,
0,
0,
0,
0,
0,
0,
0,
0,
0,
0,
0,
0,
0,
0,
0,
0,
0,
0,
0,
0,
0,
0,
0,
0,
0,
0,
0,
0,
0,
0,
0,
0,
0,
0,
0,
0,
0,
0,
0,
0,
0,
0,
0,
0,
0,
#ENDOFDATA   :

File: GM IIIB K508[0][4].msa
#FORMAT      : EMSA/MAS Spectral Data File
#VERSION     : 1.0
#TITLE       : GM IIIB K508[0][all]
#DATE        : 11-SEP-2025
#TIME        : 09:29
#OWNER       : Unknown
#NPOINTS     : 4096
#NCOLUMNS    : 1
#XUNITS      : eV
#YUNITS      : counts
#DATATYPE    : Y
#XPERCHAN    : 9.99778
#OFFSET      : 1.69135
#BEAMKV      : 20
#SIGNALTYPE  : EDS
#ELEVANGLE   : 35
#AZIMANGLE   : 0
#LIVETIME    : 240.189
#REALTIME    : 258.992
#PROBECUR    : 1.22303
#TAUWIND     : 0
#TDEADLYR    : 0
#TACTLYR     : 0.045
#TALWIND     : 0.025
#CHOFFSET    : 0.0
#XLABEL      : Energy (eV)
#YLABEL      : Counts
#XPOSITION   : 8.56882
#YPOSITION   : 9.66999
#ZPOSITION   : 34.00161
#EDSDET      : SD
##SPECIMEN   : GM IIIB K508[0][all]
##D2STDCMP   : K508,(B:9.26),(O:41.14),(Si:12.06),(Sr:37.54)
##DET_HASH   : 12273538-fd48-a23f-0a19-f1e6fa85caef
##CALIB_HASH : 6abaa72c-aa41-8738-0be9-f592914732f3
##WORKING    : 15.0 mm
##DET_NAME   : EDAX All
##DET_MODE   : MediumLE
#SPECTRUM    :
19,
813,
5928,
6314,
42752,
4104,
4313,
5076,
5796,
6381,
7210,
11869,
53248,
224808,
13893,
3455,
4073,
3648,
3253,
3576,
3393,
3432,
3426,
3443,
3346,
3608,
3529,
3161,
3047,
2860,
2726,
2658,
2916,
2682,
2487,
2441,
2367,
2300,
2235,
2161,
2187,
2028,
1994,
1903,
1873,
1793,
1941,
1653,
1642,
1594,
1532,
1520,
1481,
1479,
1446,
1351,
1238,
1261,
1185,
1190,
1109,
1071,
1101,
1071,
987,
962,
959,
954,
902,
791,
846,
791,
782,
705,
717,
684,
670,
618,
594,
626,
591,
604,
539,
488,
463,
454,
517,
423,
377,
389,
388,
384,
332,
349,
324,
304,
285,
295,
276,
299,
799,
1966,
580,
232,
211,
186,
197,
188,
142,
163,
134,
142,
207,
375,
171,
134,
94,
94,
66,
70,
74,
64,
72,
59,
50,
56,
49,
34,
35,
28,
34,
26,
29,
26,
15,
18,
18,
7,
9,
1,
7,
4,
1,
1,
0,
1,
0,
0,
1,
0,
0,
1,
0,
0,
0,
0,
0,
0,
0,
0,
0,
0,
0,
0,
0,
0,
0,
1,
0,
0,
0,
0,
0,
1,
0,
0,
1,
0,
0,
0,
0,
0,
1,
1,
0,
0,
0,
0,
0,
0,
0,
0,
0,
0,
0,
0,
0,
0,
0,
0,
0,
1,
0,
0,
0,
0,
0,
0,
0,
0,
0,
0,
0,
0,
0,
0,
0,
0,
0,
0,
0,
0,
0,
0,
0,
0,
0,
0,
0,
0,
0,
0,
0,
0,
0,
0,
0,
0,
0,
0,
0,
0,
0,
0,
0,
0,
0,
0,
0,
0,
0,
0,
0,
0,
0,
0,
0,
0,
0,
0,
0,
0,
0,
0,
0,
0,
0,
0,
0,
0,
0,
0,
0,
0,
0,
0,
0,
0,
0,
0,
0,
0,
0,
0,
0,
0,
0,
0,
0,
0,
0,
0,
0,
0,
#ENDOFDATA   :

File: GM IIIB K508[1][4].msa
#FORMAT      : EMSA/MAS Spectral Data File
#VERSION     : 1.0
#TITLE       : GM IIIB K508[1][all]
#DATE        : 11-SEP-2025
#TIME        : 09:30
#OWNER       : Unknown
#NPOINTS     : 4096
#NCOLUMNS    : 1
#XUNITS      : eV
#YUNITS      : counts
#DATATYPE    : Y
#XPERCHAN    : 9.99778
#OFFSET      : 1.69135
#BEAMKV      : 20
#SIGNALTYPE  : EDS
#ELEVANGLE   : 35
#AZIMANGLE   : 0
#LIVETIME    : 240.052
#REALTIME    : 258.84
#PROBECUR    : 1.22303
#TAUWIND     : 0
#TDEADLYR    : 0
#TACTLYR     : 0.045
#TALWIND     : 0.025
#CHOFFSET    : 0.0
#XLABEL      : Energy (eV)
#YLABEL      : Counts
#XPOSITION   : 8.56472
#YPOSITION   : 9.63677
#ZPOSITION   : 34.00161
#EDSDET      : SD
##SPECIMEN   : GM IIIB K508[1][all]
##D2STDCMP   : K508,(B:9.26),(O:41.14),(Si:12.06),(Sr:37.54)
##DET_HASH   : 12273538-fd48-a23f-0a19-f1e6fa85caef
##CALIB_HASH : 6abaa72c-aa41-8738-0be9-f592914732f3
##WORKING    : 15.0 mm
##DET_NAME   : EDAX All
##DET_MODE   : MediumLE
#SPECTRUM    :
25,
775,
6699,
6179,
42369,
4102,
4245,
4965,
5725,
6553,
7203,
11954,
52465,
225513,
13856,
3428,
4130,
3634,
3311,
3417,
3360,
3423,
3375,
3364,
3378,
3528,
3759,
3209,
2966,
2866,
2806,
2788,
2977,
2631,
2483,
2533,
2356,
2246,
2260,
2202,
2023,
1958,
1926,
1873,
1879,
1889,
1850,
1670,
1682,
1627,
1479,
1528,
1477,
1490,
1430,
1318,
1226,
1223,
1283,
1218,
1175,
1078,
1133,
969,
1026,
998,
921,
930,
891,
908,
820,
794,
807,
754,
713,
748,
643,
638,
593,
683,
576,
564,
551,
543,
483,
450,
431,
490,
455,
404,
395,
376,
353,
378,
303,
313,
315,
267,
283,
283,
833,
1910,
595,
197,
208,
173,
153,
164,
174,
181,
156,
156,
195,
343,
175,
126,
93,
83,
85,
80,
68,
70,
57,
54,
58,
46,
63,
46,
36,
36,
34,
21,
35,
19,
25,
17,
11,
8,
4,
7,
11,
8,
2,
1,
0,
0,
0,
0,
0,
0,
0,
0,
1,
2,
0,
0,
0,
0,
0,
1,
1,
0,
0,
0,
0,
0,
0,
0,
0,
0,
1,
0,
0,
0,
0,
0,
0,
0,
0,
0,
1,
0,
0,
0,
0,
0,
0,
0,
0,
0,
0,
0,
0,
0,
0,
0,
0,
0,
0,
1,
0,
0,
0,
0,
1,
0,
0,
0,
0,
0,
0,
0,
0,
0,
0,
0,
0,
0,
0,
1,
0,
0,
0,
0,
0,
0,
0,
1,
0,
0,
0,
0,
0,
0,
0,
0,
0,
0,
0,
0,
0,
0,
0,
0,
0,
0,
0,
0,
0,
0,
0,
0,
0,
0,
0,
0,
0,
0,
0,
0,
0,
0,
0,
0,
0,
0,
0,
0,
0,
0,
0,
0,
0,
0,
0,
0,
0,
0,
0,
0,
0,
0,
0,
0,
0,
0,
0,
0,
0,
0,
0,
0,
0,
0,
#ENDOFDATA   :

File: GM IIIB K508[2][4].msa
#FORMAT      : EMSA/MAS Spectral Data File
#VERSION     : 1.0
#TITLE       : GM IIIB K508[2][all]
#DATE        : 11-SEP-2025
#TIME        : 09:31
#OWNER       : Unknown
#NPOINTS     : 4096
#NCOLUMNS    : 1
#XUNITS      : eV
#YUNITS      : counts
#DATATYPE    : Y
#XPERCHAN    : 9.99778
#OFFSET      : 1.69135
#BEAMKV      : 20
#SIGNALTYPE  : EDS
#ELEVANGLE   : 35
#AZIMANGLE   : 0
#LIVETIME    : 240.135
#REALTIME    : 258.9865
#PROBECUR    : 1.22303
#TAUWIND     : 0
#TDEADLYR    : 0
#TACTLYR     : 0.045
#TALWIND     : 0.025
#CHOFFSET    : 0.0
#XLABEL      : Energy (eV)
#YLABEL      : Counts
#XPOSITION   : 8.54151
#YPOSITION   : 9.69509
#ZPOSITION   : 34.00161
#EDSDET      : SD
##SPECIMEN   : GM IIIB K508[2][all]
##D2STDCMP   : K508,(B:9.26),(O:41.14),(Si:12.06),(Sr:37.54)
##DET_HASH   : 12273538-fd48-a23f-0a19-f1e6fa85caef
##CALIB_HASH : 6abaa72c-aa41-8738-0be9-f592914732f3
##WORKING    : 15.0 mm
##DET_NAME   : EDAX All
##DET_MODE   : MediumLE
#SPECTRUM    :
22,
828,
5665,
6162,
43213,
3600,
4231,
5017,
5868,
6465,
7215,
11883,
52903,
225422,
13886,
3375,
4100,
3512,
3409,
3443,
3477,
3504,
3426,
3379,
3363,
3553,
3757,
3174,
2969,
2890,
2824,
2716,
2935,
2614,
2588,
2416,
2396,
2359,
2281,
2241,
2085,
2002,
1872,
1976,
1849,
1903,
1916,
1627,
1720,
1559,
1653,
1509,
1451,
1471,
1401,
1316,
1315,
1270,
1201,
1191,
1108,
1068,
1137,
1055,
1016,
1022,
971,
864,
896,
841,
802,
816,
747,
746,
741,
695,
693,
646,
574,
610,
638,
547,
477,
526,
514,
487,
487,
474,
430,
402,
386,
346,
386,
325,
341,
319,
297,
312,
255,
288,
867,
1933,
569,
225,
201,
203,
157,
186,
154,
154,
179,
124,
233,
351,
187,
145,
89,
84,
84,
84,
67,
81,
67,
64,
54,
49,
48,
45,
36,
44,
39,
29,
25,
22,
21,
22,
14,
6,
7,
4,
4,
3,
2,
1,
1,
1,
1,
0,
0,
0,
0,
0,
1,
0,
1,
0,
0,
0,
0,
0,
0,
0,
0,
0,
0,
0,
0,
1,
0,
0,
0,
0,
0,
1,
0,
0,
0,
0,
0,
0,
0,
2,
0,
0,
0,
0,
0,
0,
0,
0,
0,
0,
0,
1,
0,
1,
0,
0,
0,
0,
0,
0,
0,
0,
0,
0,
0,
0,
0,
0,
0,
0,
0,
0,
0,
0,
0,
0,
0,
0,
0,
0,
0,
0,
0,
0,
0,
0,
0,
0,
0,
0,
0,
0,
0,
0,
0,
0,
0,
0,
0,
0,
0,
0,
0,
0,
0,
0,
0,
0,
0,
0,
0,
0,
0,
0,
0,
0,
0,
0,
0,
0,
0,
0,
0,
0,
0,
0,
0,
0,
0,
0,
0,
0,
0,
0,
0,
0,
0,
0,
0,
0,
0,
0,
0,
0,
0,
0,
0,
0,
0,
0,
0,
0,
#ENDOFDATA   :

File: GM IIIB K508[3][4].msa
#FORMAT      : EMSA/MAS Spectral Data File
#VERSION     : 1.0
#TITLE       : GM IIIB K508[3][all]
#DATE        : 11-SEP-2025
#TIME        : 09:33
#OWNER       : Unknown
#NPOINTS     : 4096
#NCOLUMNS    : 1
#XUNITS      : eV
#YUNITS      : counts
#DATATYPE    : Y
#XPERCHAN    : 9.99778
#OFFSET      : 1.69135
#BEAMKV      : 20
#SIGNALTYPE  : EDS
#ELEVANGLE   : 35
#AZIMANGLE   : 0
#LIVETIME    : 240.14
#REALTIME    : 258.981
#PROBECUR    : 1.22303
#TAUWIND     : 0
#TDEADLYR    : 0
#TACTLYR     : 0.045
#TALWIND     : 0.025
#CHOFFSET    : 0.0
#XLABEL      : Energy (eV)
#YLABEL      : Counts
#XPOSITION   : 8.57702
#YPOSITION   : 9.62458
#ZPOSITION   : 34.00161
#EDSDET      : SD
##SPECIMEN   : GM IIIB K508[3][all]
##D2STDCMP   : K508,(B:9.26),(O:41.14),(Si:12.06),(Sr:37.54)
##DET_HASH   : 12273538-fd48-a23f-0a19-f1e6fa85caef
##CALIB_HASH : 6abaa72c-aa41-8738-0be9-f592914732f3
##WORKING    : 15.0 mm
##DET_NAME   : EDAX All
##DET_MODE   : MediumLE
#SPECTRUM    :
25,
820,
5664,
6131,
43419,
3528,
4271,
4999,
5649,
6456,
7274,
11913,
53189,
226012,
13806,
3321,
4047,
3571,
3295,
3420,
3447,
3509,
3359,
3408,
3347,
3575,
3689,
3185,
3052,
2979,
2847,
2700,
2927,
2726,
2464,
2502,
2406,
2321,
2160,
2210,
2096,
2099,
2087,
1948,
1824,
1803,
1851,
1823,
1665,
1675,
1586,
1525,
1449,
1440,
1433,
1341,
1294,
1259,
1264,
1158,
1094,
1108,
1085,
1039,
1021,
978,
981,
927,
847,
861,
823,
816,
796,
754,
755,
725,
618,
637,
595,
564,
577,
529,
603,
503,
479,
441,
448,
442,
440,
405,
368,
350,
346,
353,
341,
301,
315,
305,
279,
296,
855,
1957,
555,
217,
192,
194,
188,
173,
176,
135,
123,
141,
198,
322,
193,
109,
77,
89,
77,
88,
75,
69,
63,
45,
66,
49,
42,
41,
37,
40,
33,
30,
24,
29,
23,
24,
26,
13,
14,
6,
7,
4,
2,
2,
2,
2,
1,
2,
0,
0,
0,
0,
1,
0,
0,
0,
1,
0,
1,
0,
0,
0,
0,
0,
0,
2,
0,
0,
0,
0,
0,
0,
0,
0,
0,
0,
0,
0,
0,
0,
0,
0,
0,
0,
0,
1,
0,
0,
0,
0,
1,
0,
0,
0,
0,
0,
0,
0,
0,
0,
1,
0,
0,
0,
0,
0,
0,
0,
0,
0,
0,
0,
0,
0,
0,
0,
0,
1,
0,
0,
0,
0,
0,
0,
0,
0,
0,
0,
0,
0,
0,
0,
0,
0,
0,
0,
0,
0,
0,
0,
0,
0,
0,
0,
0,
0,
0,
0,
0,
0,
0,
0,
0,
0,
0,
0,
0,
0,
0,
0,
0,
0,
0,
0,
0,
0,
0,
0,
0,
0,
0,
0,
0,
0,
0,
0,
0,
0,
0,
0,
0,
0,
0,
0,
0,
0,
0,
0,
0,
0,
0,
0,
0,
0,
#ENDOFDATA   :

File: GM IIIB K508[4][4].msa
#FORMAT      : EMSA/MAS Spectral Data File
#VERSION     : 1.0
#TITLE       : GM IIIB K508[4][all]
#DATE        : 11-SEP-2025
#TIME        : 09:34
#OWNER       : Unknown
#NPOINTS     : 4096
#NCOLUMNS    : 1
#XUNITS      : eV
#YUNITS      : counts
#DATATYPE    : Y
#XPERCHAN    : 9.99778
#OFFSET      : 1.69135
#BEAMKV      : 20
#SIGNALTYPE  : EDS
#ELEVANGLE   : 35
#AZIMANGLE   : 0
#LIVETIME    : 240.173
#REALTIME    : 258.776
#PROBECUR    : 1.22303
#TAUWIND     : 0
#TDEADLYR    : 0
#TACTLYR     : 0.045
#TALWIND     : 0.025
#CHOFFSET    : 0.0
#XLABEL      : Energy (eV)
#YLABEL      : Counts
#XPOSITION   : 8.57861
#YPOSITION   : 9.66521
#ZPOSITION   : 34.00161
#EDSDET      : SD
##SPECIMEN   : GM IIIB K508[4][all]
##D2STDCMP   : K508,(B:9.26),(O:41.14),(Si:12.06),(Sr:37.54)
##DET_HASH   : 12273538-fd48-a23f-0a19-f1e6fa85caef
##CALIB_HASH : 6abaa72c-aa41-8738-0be9-f592914732f3
##WORKING    : 15.0 mm
##DET_NAME   : EDAX All
##DET_MODE   : MediumLE
#SPECTRUM    :
25,
714,
9466,
5993,
38993,
6852,
4157,
4993,
5821,
6614,
7042,
11759,
52579,
219428,
13379,
3355,
4144,
3542,
3321,
3577,
3468,
3492,
3408,
3338,
3480,
3542,
3927,
3281,
2904,
2953,
2861,
2813,
2925,
2617,
2452,
2438,
2397,
2339,
2273,
2154,
2098,
2012,
1987,
1841,
1802,
1740,
1851,
1670,
1656,
1585,
1545,
1530,
1504,
1485,
1382,
1303,
1250,
1250,
1189,
1221,
1089,
1108,
1101,
1041,
997,
963,
916,
911,
921,
923,
806,
803,
757,
757,
743,
732,
669,
640,
671,
646,
626,
561,
535,
508,
503,
498,
456,
435,
425,
375,
403,
394,
342,
351,
319,
313,
344,
280,
282,
289,
877,
1839,
523,
204,
205,
196,
164,
170,
161,
149,
153,
132,
223,
335,
171,
141,
75,
99,
94,
81,
66,
77,
71,
57,
60,
40,
50,
42,
30,
38,
33,
38,
25,
26,
19,
16,
16,
13,
5,
9,
7,
5,
5,
1,
1,
0,
0,
0,
1,
1,
0,
0,
1,
1,
0,
0,
0,
0,
0,
1,
0,
0,
0,
0,
0,
0,
1,
0,
0,
1,
0,
0,
0,
0,
1,
0,
0,
0,
0,
0,
0,
1,
0,
0,
1,
0,
0,
0,
0,
2,
0,
0,
0,
0,
0,
0,
0,
0,
0,
0,
1,
0,
0,
0,
0,
0,
0,
0,
0,
0,
0,
0,
0,
0,
0,
0,
0,
0,
0,
0,
0,
0,
0,
0,
0,
0,
0,
0,
0,
0,
0,
0,
0,
0,
0,
0,
0,
0,
0,
0,
0,
0,
0,
0,
0,
0,
0,
0,
0,
0,
0,
0,
0,
0,
0,
0,
0,
0,
0,
0,
0,
0,
0,
0,
0,
0,
0,
0,
0,
0,
0,
0,
0,
0,
0,
0,
0,
0,
0,
0,
0,
0,
0,
0,
0,
0,
0,
0,
0,
0,
0,
0,
0,
0,
#ENDOFDATA   :

File: GM IIIB K508[6][4].msa
#FORMAT      : EMSA/MAS Spectral Data File
#VERSION     : 1.0
#TITLE       : GM IIIB K508[6][all]
#DATE        : 11-SEP-2025
#TIME        : 09:36
#OWNER       : Unknown
#NPOINTS     : 4096
#NCOLUMNS    : 1
#XUNITS      : eV
#YUNITS      : counts
#DATATYPE    : Y
#XPERCHAN    : 9.99778
#OFFSET      : 1.69135
#BEAMKV      : 20
#SIGNALTYPE  : EDS
#ELEVANGLE   : 35
#AZIMANGLE   : 0
#LIVETIME    : 240.053
#REALTIME    : 258.864
#PROBECUR    : 1.22303
#TAUWIND     : 0
#TDEADLYR    : 0
#TACTLYR     : 0.045
#TALWIND     : 0.025
#CHOFFSET    : 0.0
#XLABEL      : Energy (eV)
#YLABEL      : Counts
#XPOSITION   : 8.60767
#YPOSITION   : 9.67727
#ZPOSITION   : 34.00161
#EDSDET      : SD
##SPECIMEN   : GM IIIB K508[6][all]
##D2STDCMP   : K508,(B:9.26),(O:41.14),(Si:12.06),(Sr:37.54)
##DET_HASH   : 12273538-fd48-a23f-0a19-f1e6fa85caef
##CALIB_HASH : 6abaa72c-aa41-8738-0be9-f592914732f3
##WORKING    : 15.0 mm
##DET_NAME   : EDAX All
##DET_MODE   : MediumLE
#SPECTRUM    :
26,
719,
6257,
6274,
43375,
4043,
4164,
5067,
5753,
6354,
7007,
11828,
53091,
224815,
13771,
3530,
3939,
3597,
3364,
3512,
3542,
3478,
3358,
3342,
3333,
3521,
3714,
3147,
3030,
2867,
2720,
2734,
2929,
2544,
2517,
2415,
2345,
2335,
2255,
2195,
2072,
2025,
2050,
1974,
1816,
1869,
1872,
1741,
1683,
1607,
1489,
1493,
1483,
1437,
1322,
1361,
1319,
1276,
1273,
1156,
1143,
1070,
1103,
1039,
1011,
1058,
927,
878,
897,
846,
841,
780,
764,
753,
716,
696,
720,
699,
625,
669,
626,
580,
583,
538,
507,
489,
493,
462,
430,
440,
388,
362,
339,
347,
311,
339,
292,
268,
239,
272,
849,
1931,
602,
211,
187,
208,
190,
174,
143,
146,
147,
137,
206,
372,
191,
130,
114,
110,
76,
70,
78,
65,
60,
63,
57,
52,
47,
39,
35,
33,
28,
25,
27,
18,
19,
22,
13,
9,
7,
8,
2,
2,
3,
3,
1,
0,
0,
2,
0,
1,
0,
2,
0,
0,
1,
0,
0,
0,
0,
1,
0,
0,
0,
0,
0,
1,
0,
0,
0,
0,
0,
0,
0,
0,
0,
0,
0,
0,
1,
0,
0,
0,
0,
0,
0,
0,
0,
0,
0,
0,
0,
0,
0,
0,
0,
0,
1,
0,
0,
0,
0,
0,
0,
0,
0,
0,
0,
0,
0,
0,
0,
1,
0,
0,
0,
0,
0,
0,
0,
0,
0,
0,
0,
0,
0,
0,
0,
0,
0,
0,
0,
0,
0,
0,
0,
0,
0,
0,
0,
0,
0,
0,
0,
0,
0,
0,
0,
0,
0,
0,
0,
0,
0,
0,
0,
0,
0,
0,
0,
0,
0,
0,
0,
0,
0,
0,
0,
0,
0,
0,
0,
0,
0,
0,
0,
0,
0,
0,
0,
0,
0,
0,
0,
0,
0,
0,
0,
0,
0,
0,
0,
0,
0,
0,
#ENDOFDATA   :