Folder: spex_quant/N132962/Quantification/20 keV/Glass Mount IIIB (part 8)

File: GM IIIB K979[4][4].msa
#FORMAT      : EMSA/MAS Spectral Data File
#VERSION     : 1.0
#TITLE       : GM IIIB K979[4][all]
#DATE        : 10-SEP-2025
#TIME        : 16:42
#OWNER       : Unknown
#NPOINTS     : 4096
#NCOLUMNS    : 1
#XUNITS      : eV
#YUNITS      : counts
#DATATYPE    : Y
#XPERCHAN    : 9.99778
#OFFSET      : 1.69135
#BEAMKV      : 20
#SIGNALTYPE  : EDS
#ELEVANGLE   : 35
#AZIMANGLE   : 0
#LIVETIME    : 240.113
#REALTIME    : 259.424
#PROBECUR    : 1.22416
#TAUWIND     : 0
#TDEADLYR    : 0
#TACTLYR     : 0.045
#TALWIND     : 0.025
#CHOFFSET    : 0.0
#XLABEL      : Energy (eV)
#YLABEL      : Counts
#XPOSITION   : -1.93168
#YPOSITION   : 11.30811
#ZPOSITION   : 34.06144
#EDSDET      : SD
##SPECIMEN   : GM IIIB K979[4][all]
##D2STDCMP   : K979,(Li:1.05),(O:40.58),(Al:8.92),(Si:21.02),(K:1.87),(Ca:6.75),(Ti:1.35),(Sr:10.05),(Nb:1.57),(Sb:0.84),(Cs:2.12),(Sm:1.94),(Dy:1.96)
##DET_HASH   : 12273538-fd48-a23f-0a19-f1e6fa85caef
##CALIB_HASH : 6abaa72c-aa41-8738-0be9-f592914732f3
##WORKING    : 15.0 mm
##DET_NAME   : EDAX All
##DET_MODE   : MediumLE
#SPECTRUM    :
31,
283,
6757,
6798,
46460,
3395,
4275,
5228,
6330,
8071,
12079,
36460,
63206,
72627,
6392,
4763,
6442,
3738,
3616,
3538,
3459,
3431,
3372,
4914,
9712,
4036,
24134,
9391,
4155,
5820,
3400,
4421,
7376,
4531,
2661,
3294,
2323,
2189,
2163,
2102,
3588,
2204,
1814,
1762,
2298,
2008,
2876,
2348,
1479,
1424,
1373,
1662,
1978,
1473,
1453,
1335,
1140,
1187,
1084,
1012,
1127,
972,
1027,
905,
904,
882,
839,
773,
783,
745,
800,
712,
722,
691,
641,
665,
609,
569,
530,
505,
553,
486,
456,
478,
451,
378,
412,
388,
381,
349,
323,
339,
309,
293,
284,
260,
256,
251,
242,
206,
387,
685,
304,
203,
165,
161,
160,
146,
155,
145,
119,
135,
129,
171,
114,
94,
69,
81,
60,
73,
74,
73,
58,
43,
52,
42,
44,
39,
35,
38,
31,
24,
19,
19,
19,
12,
19,
11,
9,
1,
5,
3,
3,
0,
0,
1,
0,
0,
0,
0,
0,
0,
0,
1,
0,
0,
1,
0,
1,
0,
0,
1,
0,
0,
1,
0,
0,
0,
0,
0,
0,
0,
0,
0,
1,
0,
0,
0,
0,
0,
0,
0,
0,
0,
0,
0,
0,
0,
0,
0,
0,
1,
0,
0,
0,
0,
0,
0,
0,
0,
0,
0,
0,
0,
0,
0,
0,
0,
0,
0,
0,
0,
0,
0,
0,
0,
0,
0,
0,
0,
0,
0,
0,
0,
0,
0,
0,
0,
0,
0,
0,
0,
0,
0,
0,
0,
0,
0,
0,
0,
0,
0,
0,
0,
0,
0,
0,
0,
0,
0,
0,
0,
0,
0,
0,
0,
0,
0,
0,
0,
0,
0,
0,
0,
0,
0,
0,
0,
0,
0,
0,
0,
0,
0,
0,
0,
0,
0,
0,
0,
0,
0,
0,
0,
0,
0,
0,
0,
0,
0,
0,
0,
0,
0,
#ENDOFDATA   :

File: GM IIIB K1053[0][4].msa
#FORMAT      : EMSA/MAS Spectral Data File
#VERSION     : 1.0
#TITLE       : GM IIIB K1053[0][all]
#DATE        : 10-SEP-2025
#TIME        : 16:55
#OWNER       : Unknown
#NPOINTS     : 4096
#NCOLUMNS    : 1
#XUNITS      : eV
#YUNITS      : counts
#DATATYPE    : Y
#XPERCHAN    : 9.99778
#OFFSET      : 1.69135
#BEAMKV      : 20
#SIGNALTYPE  : EDS
#ELEVANGLE   : 35
#AZIMANGLE   : 0
#LIVETIME    : 240.332
#REALTIME    : 269.028
#PROBECUR    : 1.22416
#TAUWIND     : 0
#TDEADLYR    : 0
#TACTLYR     : 0.045
#TALWIND     : 0.025
#CHOFFSET    : 0.0
#XLABEL      : Energy (eV)
#YLABEL      : Counts
#XPOSITION   : 3.44298
#YPOSITION   : 13.85781
#ZPOSITION   : 34.06144
#EDSDET      : SD
##SPECIMEN   : GM IIIB K1053[0][all]
##D2STDCMP   : K1053,(O:16.13),(F:0.39),(Si:9.35),(Cl:0.64),(Br:1.09),(I:1.37),(Pb:71.02)
##DET_HASH   : 12273538-fd48-a23f-0a19-f1e6fa85caef
##CALIB_HASH : 6abaa72c-aa41-8738-0be9-f592914732f3
##WORKING    : 15.0 mm
##DET_NAME   : EDAX All
##DET_MODE   : MediumLE
#SPECTRUM    :
27,
720,
13591,
7420,
23167,
10251,
7907,
8166,
9066,
10037,
11211,
14657,
40453,
36105,
10130,
10561,
22413,
178230,
29647,
16106,
6219,
6500,
8143,
5995,
5745,
5957,
5616,
5908,
7589,
5837,
6707,
5724,
6300,
5552,
5688,
5447,
5345,
5083,
5036,
4938,
4844,
4763,
4653,
4555,
4528,
4554,
4737,
4290,
4183,
4118,
4157,
3841,
3770,
3991,
3623,
3601,
3436,
3285,
3314,
3159,
3125,
3052,
2998,
2885,
2864,
3294,
3296,
2672,
2573,
2458,
2367,
2372,
2213,
2253,
3555,
13769,
7661,
2177,
1871,
1906,
1832,
1892,
1758,
1685,
1618,
1802,
1583,
1592,
1626,
2372,
6185,
2643,
1448,
1437,
1130,
1134,
1002,
943,
849,
852,
814,
803,
764,
687,
758,
1041,
902,
615,
689,
635,
493,
505,
517,
460,
391,
419,
373,
371,
358,
323,
311,
266,
290,
238,
226,
239,
208,
183,
169,
161,
149,
142,
119,
96,
106,
67,
81,
75,
52,
47,
29,
23,
10,
6,
4,
2,
13,
9,
5,
4,
7,
7,
6,
4,
4,
3,
1,
2,
3,
3,
2,
4,
3,
1,
4,
2,
2,
0,
5,
2,
3,
0,
0,
1,
0,
1,
2,
2,
1,
2,
2,
1,
0,
1,
1,
1,
1,
0,
1,
3,
2,
0,
1,
0,
1,
1,
2,
0,
0,
2,
0,
0,
1,
0,
0,
1,
1,
0,
0,
0,
0,
0,
0,
0,
1,
1,
0,
0,
0,
0,
0,
0,
0,
0,
0,
0,
0,
0,
0,
0,
0,
0,
0,
0,
0,
0,
0,
0,
0,
0,
0,
0,
0,
0,
0,
0,
0,
0,
0,
0,
0,
0,
0,
0,
0,
0,
0,
0,
0,
0,
0,
0,
0,
0,
0,
0,
0,
0,
0,
0,
0,
0,
0,
0,
0,
0,
0,
0,
0,
0,
0,
0,
0,
0,
0,
0,
0,
0,
0,
0,
0,
0,
0,
0,
#ENDOFDATA   :

File: GM IIIB K1053[3][4].msa
#FORMAT      : EMSA/MAS Spectral Data File
#VERSION     : 1.0
#TITLE       : GM IIIB K1053[3][all]
#DATE        : 10-SEP-2025
#TIME        : 16:59
#OWNER       : Unknown
#NPOINTS     : 4096
#NCOLUMNS    : 1
#XUNITS      : eV
#YUNITS      : counts
#DATATYPE    : Y
#XPERCHAN    : 9.99778
#OFFSET      : 1.69135
#BEAMKV      : 20
#SIGNALTYPE  : EDS
#ELEVANGLE   : 35
#AZIMANGLE   : 0
#LIVETIME    : 240.281
#REALTIME    : 268.977
#PROBECUR    : 1.22416
#TAUWIND     : 0
#TDEADLYR    : 0
#TACTLYR     : 0.045
#TALWIND     : 0.025
#CHOFFSET    : 0.0
#XLABEL      : Energy (eV)
#YLABEL      : Counts
#XPOSITION   : 3.49728
#YPOSITION   : 13.85677
#ZPOSITION   : 34.06144
#EDSDET      : SD
##SPECIMEN   : GM IIIB K1053[3][all]
##D2STDCMP   : K1053,(O:16.13),(F:0.39),(Si:9.35),(Cl:0.64),(Br:1.09),(I:1.37),(Pb:71.02)
##DET_HASH   : 12273538-fd48-a23f-0a19-f1e6fa85caef
##CALIB_HASH : 6abaa72c-aa41-8738-0be9-f592914732f3
##WORKING    : 15.0 mm
##DET_NAME   : EDAX All
##DET_MODE   : MediumLE
#SPECTRUM    :
16,
739,
13957,
7333,
23508,
10322,
7666,
8322,
9027,
10228,
11575,
14758,
40285,
35831,
10115,
10459,
22580,
178351,
29935,
16256,
6242,
6576,
8271,
6195,
5639,
6128,
5859,
5937,
7550,
5911,
6668,
5803,
6345,
5674,
5783,
5446,
5333,
5313,
5102,
4983,
4987,
4747,
4761,
4617,
4512,
4585,
4776,
4301,
4100,
4088,
4024,
3908,
3740,
4037,
3723,
3697,
3458,
3325,
3342,
3336,
3160,
3016,
2972,
2888,
2800,
3205,
3227,
2661,
2568,
2436,
2487,
2366,
2255,
2357,
3461,
13707,
7430,
2096,
1962,
1902,
1853,
1859,
1717,
1597,
1617,
1839,
1677,
1556,
1548,
2301,
6082,
2622,
1419,
1468,
1128,
1134,
1022,
908,
903,
827,
853,
851,
741,
747,
728,
1004,
926,
673,
669,
654,
569,
462,
459,
483,
438,
392,
394,
324,
343,
328,
284,
284,
251,
272,
210,
203,
201,
186,
184,
154,
162,
132,
118,
101,
118,
104,
80,
44,
52,
39,
37,
19,
12,
5,
10,
5,
5,
3,
5,
5,
5,
2,
7,
4,
1,
3,
2,
4,
3,
2,
2,
2,
5,
3,
2,
4,
1,
2,
3,
4,
0,
2,
2,
0,
3,
1,
2,
0,
0,
1,
3,
2,
0,
1,
2,
1,
1,
2,
0,
0,
2,
0,
0,
1,
1,
0,
0,
0,
0,
1,
0,
1,
1,
1,
0,
0,
0,
0,
0,
0,
0,
0,
0,
0,
1,
0,
1,
0,
1,
0,
1,
0,
0,
0,
0,
0,
0,
0,
0,
0,
0,
0,
0,
0,
0,
0,
1,
0,
0,
0,
0,
0,
0,
0,
0,
0,
0,
0,
0,
0,
0,
0,
0,
0,
0,
0,
0,
0,
0,
0,
0,
0,
0,
0,
0,
0,
0,
0,
0,
0,
0,
0,
0,
0,
0,
0,
0,
0,
0,
0,
0,
0,
0,
0,
0,
0,
0,
0,
0,
0,
0,
0,
0,
0,
#ENDOFDATA   :

File: GM IIIB K1053[4][4].msa
#FORMAT      : EMSA/MAS Spectral Data File
#VERSION     : 1.0
#TITLE       : GM IIIB K1053[4][all]
#DATE        : 10-SEP-2025
#TIME        : 17:00
#OWNER       : Unknown
#NPOINTS     : 4096
#NCOLUMNS    : 1
#XUNITS      : eV
#YUNITS      : counts
#DATATYPE    : Y
#XPERCHAN    : 9.99778
#OFFSET      : 1.69135
#BEAMKV      : 20
#SIGNALTYPE  : EDS
#ELEVANGLE   : 35
#AZIMANGLE   : 0
#LIVETIME    : 240.292
#REALTIME    : 268.972
#PROBECUR    : 1.22416
#TAUWIND     : 0
#TDEADLYR    : 0
#TACTLYR     : 0.045
#TALWIND     : 0.025
#CHOFFSET    : 0.0
#XLABEL      : Energy (eV)
#YLABEL      : Counts
#XPOSITION   : 3.46514
#YPOSITION   : 13.91132
#ZPOSITION   : 34.06144
#EDSDET      : SD
##SPECIMEN   : GM IIIB K1053[4][all]
##D2STDCMP   : K1053,(O:16.13),(F:0.39),(Si:9.35),(Cl:0.64),(Br:1.09),(I:1.37),(Pb:71.02)
##DET_HASH   : 12273538-fd48-a23f-0a19-f1e6fa85caef
##CALIB_HASH : 6abaa72c-aa41-8738-0be9-f592914732f3
##WORKING    : 15.0 mm
##DET_NAME   : EDAX All
##DET_MODE   : MediumLE
#SPECTRUM    :
13,
734,
13485,
7398,
23099,
10301,
7733,
8330,
8938,
10149,
11451,
14981,
40119,
35914,
10161,
10520,
22556,
178226,
29858,
16126,
6155,
6616,
8215,
6048,
5637,
5902,
5799,
5921,
7521,
5765,
6544,
5750,
6485,
5618,
5759,
5503,
5223,
5148,
4962,
4899,
4849,
4752,
4722,
4602,
4568,
4652,
4682,
4236,
4041,
4084,
4050,
3811,
3838,
4055,
3714,
3525,
3431,
3354,
3274,
3240,
3150,
3033,
3066,
2885,
2828,
3160,
3234,
2745,
2513,
2493,
2436,
2339,
2322,
2249,
3586,
13904,
7496,
2140,
1930,
1867,
1880,
1840,
1715,
1655,
1600,
1789,
1592,
1695,
1591,
2230,
6168,
2652,
1505,
1375,
1051,
1101,
963,
977,
919,
892,
825,
828,
776,
745,
735,
952,
915,
659,
664,
629,
522,
503,
461,
435,
427,
404,
406,
376,
350,
348,
318,
270,
282,
284,
247,
244,
193,
194,
170,
209,
161,
143,
116,
107,
97,
87,
73,
74,
60,
37,
26,
22,
18,
7,
4,
8,
5,
4,
9,
3,
6,
6,
4,
2,
3,
1,
3,
2,
4,
2,
3,
3,
3,
3,
3,
3,
2,
6,
4,
3,
0,
1,
0,
2,
2,
1,
2,
3,
6,
2,
3,
1,
1,
0,
2,
1,
1,
2,
2,
1,
1,
0,
1,
0,
0,
1,
1,
0,
0,
0,
1,
1,
0,
0,
1,
0,
0,
1,
1,
1,
0,
0,
0,
0,
0,
1,
0,
0,
0,
0,
0,
1,
0,
0,
0,
0,
1,
0,
0,
0,
0,
0,
0,
0,
0,
0,
0,
0,
0,
0,
0,
0,
0,
0,
0,
0,
0,
0,
0,
0,
0,
0,
0,
0,
0,
0,
0,
0,
0,
0,
0,
0,
0,
0,
0,
0,
0,
0,
0,
0,
0,
0,
0,
0,
0,
0,
0,
0,
0,
0,
0,
0,
0,
0,
0,
0,
0,
0,
0,
0,
0,
0,
0,
0,
#ENDOFDATA   :

File: GM IIIB K1070[1][4].msa
#FORMAT      : EMSA/MAS Spectral Data File
#VERSION     : 1.0
#TITLE       : GM IIIB K1070[1][all]
#DATE        : 10-SEP-2025
#TIME        : 16:51
#OWNER       : Unknown
#NPOINTS     : 4096
#NCOLUMNS    : 1
#XUNITS      : eV
#YUNITS      : counts
#DATATYPE    : Y
#XPERCHAN    : 9.99778
#OFFSET      : 1.69135
#BEAMKV      : 20
#SIGNALTYPE  : EDS
#ELEVANGLE   : 35
#AZIMANGLE   : 0
#LIVETIME    : 240.181
#REALTIME    : 260.006
#PROBECUR    : 1.22416
#TAUWIND     : 0
#TDEADLYR    : 0
#TACTLYR     : 0.045
#TALWIND     : 0.025
#CHOFFSET    : 0.0
#XLABEL      : Energy (eV)
#YLABEL      : Counts
#XPOSITION   : 1.33771
#YPOSITION   : 13.46562
#ZPOSITION   : 34.06144
#EDSDET      : SD
##SPECIMEN   : GM IIIB K1070[1][all]
##D2STDCMP   : K1070,(O:34.31),(Mg:7.54),(Si:18.7),(Ca:8.93),(Zn:10.04),(Ba:11.2),(Pb:9.28)
##DET_HASH   : 12273538-fd48-a23f-0a19-f1e6fa85caef
##CALIB_HASH : 6abaa72c-aa41-8738-0be9-f592914732f3
##WORKING    : 15.0 mm
##DET_NAME   : EDAX All
##DET_MODE   : MediumLE
#SPECTRUM    :
25,
248,
9392,
7053,
47068,
4399,
5876,
27550,
6105,
52761,
5392,
6133,
51933,
27239,
5080,
4647,
6132,
21700,
6540,
5379,
4387,
4238,
4565,
4069,
3971,
4120,
29647,
11710,
5083,
7401,
3379,
4097,
19210,
3230,
6022,
7476,
3172,
5178,
2541,
2966,
2850,
2612,
2394,
2170,
2072,
2133,
2073,
1949,
1825,
1799,
1719,
1802,
1635,
1625,
1621,
1469,
1472,
1454,
1418,
1398,
1413,
5382,
8344,
1447,
1159,
1192,
1213,
1122,
2124,
1559,
972,
946,
888,
941,
1076,
1900,
1375,
818,
789,
761,
705,
672,
660,
579,
627,
571,
576,
539,
537,
599,
942,
598,
447,
453,
372,
379,
347,
343,
328,
306,
295,
278,
277,
247,
241,
266,
250,
209,
192,
205,
177,
159,
144,
130,
158,
129,
126,
99,
98,
95,
93,
95,
79,
67,
69,
71,
58,
54,
50,
50,
39,
35,
34,
34,
34,
17,
21,
11,
12,
12,
10,
7,
4,
2,
2,
1,
2,
1,
0,
1,
0,
0,
1,
2,
0,
1,
2,
0,
0,
1,
0,
1,
0,
0,
0,
0,
0,
0,
0,
0,
0,
0,
0,
0,
0,
0,
0,
0,
0,
0,
0,
0,
0,
0,
0,
0,
0,
1,
0,
0,
1,
0,
0,
0,
0,
0,
0,
0,
0,
0,
0,
0,
0,
0,
0,
0,
0,
0,
0,
0,
0,
0,
0,
0,
0,
0,
0,
0,
0,
0,
0,
0,
0,
0,
0,
0,
0,
0,
0,
0,
0,
0,
0,
0,
0,
0,
0,
0,
0,
0,
0,
0,
0,
0,
0,
0,
0,
0,
0,
0,
0,
0,
0,
0,
0,
0,
0,
0,
0,
0,
0,
0,
0,
0,
0,
0,
0,
0,
0,
0,
0,
0,
0,
0,
0,
0,
0,
0,
0,
0,
0,
0,
0,
0,
0,
0,
0,
0,
0,
0,
0,
0,
0,
0,
#ENDOFDATA   :

File: GM IIIB K1070[2][4].msa
#FORMAT      : EMSA/MAS Spectral Data File
#VERSION     : 1.0
#TITLE       : GM IIIB K1070[2][all]
#DATE        : 10-SEP-2025
#TIME        : 16:52
#OWNER       : Unknown
#NPOINTS     : 4096
#NCOLUMNS    : 1
#XUNITS      : eV
#YUNITS      : counts
#DATATYPE    : Y
#XPERCHAN    : 9.99778
#OFFSET      : 1.69135
#BEAMKV      : 20
#SIGNALTYPE  : EDS
#ELEVANGLE   : 35
#AZIMANGLE   : 0
#LIVETIME    : 240.166
#REALTIME    : 260.002
#PROBECUR    : 1.22416
#TAUWIND     : 0
#TDEADLYR    : 0
#TACTLYR     : 0.045
#TALWIND     : 0.025
#CHOFFSET    : 0.0
#XLABEL      : Energy (eV)
#YLABEL      : Counts
#XPOSITION   : 1.32921
#YPOSITION   : 13.46774
#ZPOSITION   : 34.06144
#EDSDET      : SD
##SPECIMEN   : GM IIIB K1070[2][all]
##D2STDCMP   : K1070,(O:34.31),(Mg:7.54),(Si:18.7),(Ca:8.93),(Zn:10.04),(Ba:11.2),(Pb:9.28)
##DET_HASH   : 12273538-fd48-a23f-0a19-f1e6fa85caef
##CALIB_HASH : 6abaa72c-aa41-8738-0be9-f592914732f3
##WORKING    : 15.0 mm
##DET_NAME   : EDAX All
##DET_MODE   : MediumLE
#SPECTRUM    :
20,
254,
9101,
7118,
47339,
4489,
5836,
27719,
6002,
52744,
5220,
6298,
52244,
27316,
4947,
4584,
6380,
21373,
6519,
5467,
4159,
4306,
4561,
3888,
3782,
4100,
29569,
12005,
5114,
7317,
3324,
4168,
19738,
3151,
6037,
7561,
3309,
5248,
2589,
2995,
2940,
2620,
2357,
2129,
2029,
2099,
2173,
1939,
1862,
1847,
1787,
1733,
1642,
1742,
1640,
1545,
1482,
1486,
1443,
1388,
1386,
5663,
8354,
1324,
1164,
1199,
1273,
1138,
2165,
1458,
998,
956,
903,
877,
1034,
1920,
1305,
764,
740,
758,
715,
700,
658,
639,
600,
613,
593,
548,
492,
589,
942,
628,
443,
421,
420,
356,
351,
341,
343,
311,
301,
266,
271,
228,
237,
252,
248,
229,
207,
181,
148,
156,
167,
138,
140,
105,
117,
112,
115,
96,
95,
78,
74,
87,
75,
58,
48,
55,
68,
46,
49,
48,
23,
32,
25,
21,
17,
20,
8,
8,
12,
6,
2,
2,
2,
2,
0,
1,
0,
0,
1,
2,
1,
0,
0,
0,
0,
0,
0,
1,
0,
0,
0,
0,
1,
0,
0,
0,
0,
0,
1,
0,
0,
0,
0,
0,
0,
0,
0,
0,
0,
0,
0,
0,
0,
1,
0,
0,
0,
0,
1,
0,
0,
0,
0,
1,
0,
0,
0,
0,
0,
0,
0,
1,
0,
0,
0,
0,
1,
0,
0,
0,
0,
0,
0,
0,
0,
0,
0,
0,
0,
0,
0,
0,
0,
0,
0,
0,
0,
0,
0,
0,
0,
0,
0,
0,
0,
0,
0,
0,
0,
0,
0,
0,
0,
0,
0,
0,
0,
0,
0,
0,
0,
0,
0,
0,
0,
0,
0,
0,
0,
0,
0,
0,
0,
0,
0,
0,
0,
0,
0,
0,
0,
0,
0,
0,
0,
0,
0,
0,
0,
0,
0,
0,
0,
0,
0,
0,
0,
0,
0,
0,
0,
0,
#ENDOFDATA   :

File: GM IIIB K1070[4][4].msa
#FORMAT      : EMSA/MAS Spectral Data File
#VERSION     : 1.0
#TITLE       : GM IIIB K1070[4][all]
#DATE        : 10-SEP-2025
#TIME        : 16:54
#OWNER       : Unknown
#NPOINTS     : 4096
#NCOLUMNS    : 1
#XUNITS      : eV
#YUNITS      : counts
#DATATYPE    : Y
#XPERCHAN    : 9.99778
#OFFSET      : 1.69135
#BEAMKV      : 20
#SIGNALTYPE  : EDS
#ELEVANGLE   : 35
#AZIMANGLE   : 0
#LIVETIME    : 240.147
#REALTIME    : 259.947
#PROBECUR    : 1.22416
#TAUWIND     : 0
#TDEADLYR    : 0
#TACTLYR     : 0.045
#TALWIND     : 0.025
#CHOFFSET    : 0.0
#XLABEL      : Energy (eV)
#YLABEL      : Counts
#XPOSITION   : 1.19211
#YPOSITION   : 13.46242
#ZPOSITION   : 34.06144
#EDSDET      : SD
##SPECIMEN   : GM IIIB K1070[4][all]
##D2STDCMP   : K1070,(O:34.31),(Mg:7.54),(Si:18.7),(Ca:8.93),(Zn:10.04),(Ba:11.2),(Pb:9.28)
##DET_HASH   : 12273538-fd48-a23f-0a19-f1e6fa85caef
##CALIB_HASH : 6abaa72c-aa41-8738-0be9-f592914732f3
##WORKING    : 15.0 mm
##DET_NAME   : EDAX All
##DET_MODE   : MediumLE
#SPECTRUM    :
24,
240,
9467,
7101,
46832,
4589,
5754,
27465,
6121,
52604,
5344,
6126,
51815,
27486,
4950,
4529,
6117,
21777,
6505,
5493,
4148,
4256,
4488,
4028,
3888,
4161,
29189,
11978,
4987,
7309,
3196,
4061,
19448,
3214,
5952,
7575,
3258,
5097,
2614,
3076,
2784,
2628,
2431,
2153,
2088,
2012,
2154,
1923,
1823,
1830,
1826,
1686,
1723,
1700,
1643,
1490,
1444,
1460,
1375,
1370,
1293,
5445,
8390,
1355,
1192,
1189,
1218,
1104,
2090,
1481,
991,
910,
922,
915,
1044,
1982,
1267,
779,
770,
735,
731,
684,
595,
659,
602,
602,
566,
505,
528,
576,
979,
582,
429,
450,
403,
377,
328,
361,
346,
273,
317,
293,
256,
258,
228,
265,
241,
222,
221,
193,
175,
162,
143,
145,
165,
137,
120,
110,
105,
79,
96,
82,
90,
72,
67,
69,
67,
38,
51,
39,
40,
32,
28,
33,
29,
15,
23,
15,
17,
6,
11,
7,
4,
2,
0,
0,
1,
1,
1,
1,
0,
3,
0,
0,
0,
0,
1,
1,
0,
1,
0,
0,
0,
1,
0,
0,
0,
0,
0,
0,
0,
0,
0,
0,
0,
0,
1,
0,
2,
0,
0,
0,
0,
0,
0,
0,
0,
0,
0,
0,
0,
0,
0,
0,
0,
0,
0,
0,
0,
0,
0,
0,
0,
0,
0,
0,
0,
0,
0,
0,
0,
0,
0,
0,
0,
0,
0,
0,
0,
0,
0,
0,
0,
0,
0,
0,
0,
0,
0,
0,
0,
0,
0,
0,
0,
0,
0,
0,
0,
0,
0,
0,
0,
0,
0,
0,
0,
0,
0,
0,
0,
0,
0,
0,
0,
0,
0,
0,
0,
0,
0,
0,
0,
0,
0,
0,
0,
0,
0,
0,
0,
0,
0,
0,
0,
0,
0,
0,
0,
0,
0,
0,
0,
0,
0,
0,
0,
0,
0,
0,
0,
0,
0,
0,
#ENDOFDATA   :

File: GM IIIB K1132[0][4].msa
#FORMAT      : EMSA/MAS Spectral Data File
#VERSION     : 1.0
#TITLE       : GM IIIB K1132[0][all]
#DATE        : 10-SEP-2025
#TIME        : 17:30
#OWNER       : Unknown
#NPOINTS     : 4096
#NCOLUMNS    : 1
#XUNITS      : eV
#YUNITS      : counts
#DATATYPE    : Y
#XPERCHAN    : 9.99778
#OFFSET      : 1.69135
#BEAMKV      : 20
#SIGNALTYPE  : EDS
#ELEVANGLE   : 35
#AZIMANGLE   : 0
#LIVETIME    : 240.14
#REALTIME    : 258.801
#PROBECUR    : 1.22427
#TAUWIND     : 0
#TDEADLYR    : 0
#TACTLYR     : 0.045
#TALWIND     : 0.025
#CHOFFSET    : 0.0
#XLABEL      : Energy (eV)
#YLABEL      : Counts
#XPOSITION   : 7.05082
#YPOSITION   : 16.28695
#ZPOSITION   : 34.06144
#EDSDET      : SD
##SPECIMEN   : GM IIIB K1132[0][all]
##D2STDCMP   : K1132,(Li:2.32),(O:41.34),(Al:7.94),(Si:21.39),(Ca:10.72),(Cr:0.51),(Ni:1.18),(Mo:1.67),(Ba:13.43)
##DET_HASH   : 12273538-fd48-a23f-0a19-f1e6fa85caef
##CALIB_HASH : 6abaa72c-aa41-8738-0be9-f592914732f3
##WORKING    : 15.0 mm
##DET_NAME   : EDAX All
##DET_MODE   : MediumLE
#SPECTRUM    :
24,
227,
7792,
7049,
55363,
3459,
6184,
4852,
4411,
5070,
9747,
28580,
58234,
28471,
4547,
3743,
6424,
6214,
4118,
3810,
3633,
3617,
3536,
3583,
3281,
3727,
34181,
12864,
4930,
7570,
2717,
3679,
21601,
2662,
5973,
7614,
2813,
4973,
2469,
3470,
2510,
2129,
1999,
1869,
1645,
1648,
1648,
1502,
1394,
1412,
1329,
1272,
1256,
2539,
1771,
1224,
1137,
1095,
1082,
1290,
1016,
975,
960,
913,
906,
847,
802,
758,
759,
831,
713,
742,
686,
614,
641,
595,
586,
537,
573,
560,
486,
488,
488,
414,
412,
413,
413,
364,
372,
347,
325,
338,
313,
301,
297,
262,
247,
236,
228,
233,
217,
191,
217,
178,
172,
152,
131,
163,
128,
137,
126,
93,
115,
110,
101,
76,
87,
79,
95,
67,
60,
66,
67,
60,
57,
60,
43,
26,
26,
32,
32,
34,
25,
20,
18,
9,
9,
13,
4,
6,
5,
7,
2,
1,
0,
0,
0,
0,
0,
0,
0,
0,
0,
0,
0,
0,
1,
0,
0,
0,
1,
0,
0,
0,
0,
0,
0,
0,
0,
0,
0,
0,
0,
0,
0,
0,
0,
0,
1,
0,
0,
0,
0,
0,
0,
0,
0,
0,
0,
0,
0,
0,
0,
0,
0,
0,
0,
0,
0,
0,
0,
0,
0,
0,
0,
0,
0,
0,
0,
0,
0,
0,
0,
0,
0,
0,
0,
0,
0,
0,
0,
0,
0,
0,
0,
0,
0,
0,
0,
0,
0,
0,
0,
0,
0,
0,
0,
0,
0,
0,
0,
0,
0,
0,
0,
0,
0,
0,
0,
0,
0,
0,
0,
0,
0,
0,
0,
0,
0,
0,
0,
0,
0,
0,
0,
0,
0,
0,
0,
0,
0,
0,
0,
0,
0,
0,
0,
0,
0,
0,
0,
0,
0,
0,
0,
0,
0,
0,
0,
0,
0,
0,
0,
0,
#ENDOFDATA   :

File: GM IIIB K1132[1][4].msa
#FORMAT      : EMSA/MAS Spectral Data File
#VERSION     : 1.0
#TITLE       : GM IIIB K1132[1][all]
#DATE        : 10-SEP-2025
#TIME        : 17:31
#OWNER       : Unknown
#NPOINTS     : 4096
#NCOLUMNS    : 1
#XUNITS      : eV
#YUNITS      : counts
#DATATYPE    : Y
#XPERCHAN    : 9.99778
#OFFSET      : 1.69135
#BEAMKV      : 20
#SIGNALTYPE  : EDS
#ELEVANGLE   : 35
#AZIMANGLE   : 0
#LIVETIME    : 240.138
#REALTIME    : 258.7903
#PROBECUR    : 1.22427
#TAUWIND     : 0
#TDEADLYR    : 0
#TACTLYR     : 0.045
#TALWIND     : 0.025
#CHOFFSET    : 0.0
#XLABEL      : Energy (eV)
#YLABEL      : Counts
#XPOSITION   : 7.08303
#YPOSITION   : 16.32423
#ZPOSITION   : 34.06144
#EDSDET      : SD
##SPECIMEN   : GM IIIB K1132[1][all]
##D2STDCMP   : K1132,(Li:2.32),(O:41.34),(Al:7.94),(Si:21.39),(Ca:10.72),(Cr:0.51),(Ni:1.18),(Mo:1.67),(Ba:13.43)
##DET_HASH   : 12273538-fd48-a23f-0a19-f1e6fa85caef
##CALIB_HASH : 6abaa72c-aa41-8738-0be9-f592914732f3
##WORKING    : 15.0 mm
##DET_NAME   : EDAX All
##DET_MODE   : MediumLE
#SPECTRUM    :
12,
265,
7879,
7258,
55560,
3384,
6112,
4673,
4406,
5060,
9673,
28600,
57989,
28486,
4434,
3886,
6320,
6080,
4170,
3791,
3651,
3621,
3486,
3518,
3220,
3724,
33977,
12766,
4691,
7583,
2717,
3869,
21443,
2665,
5957,
7687,
2856,
5175,
2538,
3530,
2426,
2140,
2033,
1776,
1627,
1533,
1583,
1422,
1486,
1387,
1296,
1401,
1274,
2547,
1775,
1109,
1091,
1177,
1089,
1251,
954,
960,
946,
913,
879,
840,
828,
794,
775,
721,
688,
674,
705,
695,
650,
578,
582,
550,
560,
534,
474,
496,
496,
459,
385,
404,
404,
368,
377,
347,
331,
321,
300,
301,
277,
264,
255,
243,
248,
240,
217,
190,
206,
180,
148,
154,
154,
136,
149,
144,
123,
112,
101,
100,
72,
89,
81,
59,
79,
65,
57,
67,
53,
59,
48,
48,
40,
43,
33,
31,
35,
28,
16,
16,
14,
19,
13,
13,
15,
7,
5,
3,
3,
0,
1,
0,
1,
1,
0,
1,
0,
0,
0,
0,
0,
1,
1,
1,
0,
0,
0,
0,
0,
0,
0,
0,
0,
0,
0,
0,
0,
0,
0,
0,
1,
0,
0,
0,
0,
0,
0,
0,
0,
0,
0,
0,
0,
0,
0,
0,
0,
0,
0,
0,
0,
0,
0,
0,
0,
1,
1,
0,
0,
0,
0,
0,
0,
0,
0,
0,
0,
0,
0,
0,
0,
0,
0,
0,
0,
0,
0,
0,
0,
0,
0,
0,
0,
0,
0,
0,
0,
0,
0,
0,
0,
0,
0,
0,
0,
0,
0,
0,
0,
0,
0,
0,
0,
0,
0,
0,
0,
0,
0,
0,
0,
0,
0,
0,
0,
0,
0,
0,
0,
0,
0,
0,
0,
0,
0,
0,
0,
0,
0,
0,
0,
0,
0,
0,
0,
0,
0,
0,
0,
0,
0,
0,
0,
0,
0,
0,
0,
0,
0,
0,
#ENDOFDATA   :

File: GM IIIB K1132[2][4].msa
#FORMAT      : EMSA/MAS Spectral Data File
#VERSION     : 1.0
#TITLE       : GM IIIB K1132[2][all]
#DATE        : 10-SEP-2025
#TIME        : 17:33
#OWNER       : Unknown
#NPOINTS     : 4096
#NCOLUMNS    : 1
#XUNITS      : eV
#YUNITS      : counts
#DATATYPE    : Y
#XPERCHAN    : 9.99778
#OFFSET      : 1.69135
#BEAMKV      : 20
#SIGNALTYPE  : EDS
#ELEVANGLE   : 35
#AZIMANGLE   : 0
#LIVETIME    : 240.128
#REALTIME    : 258.7903
#PROBECUR    : 1.22427
#TAUWIND     : 0
#TDEADLYR    : 0
#TACTLYR     : 0.045
#TALWIND     : 0.025
#CHOFFSET    : 0.0
#XLABEL      : Energy (eV)
#YLABEL      : Counts
#XPOSITION   : 7.08155
#YPOSITION   : 16.34489
#ZPOSITION   : 34.06144
#EDSDET      : SD
##SPECIMEN   : GM IIIB K1132[2][all]
##D2STDCMP   : K1132,(Li:2.32),(O:41.34),(Al:7.94),(Si:21.39),(Ca:10.72),(Cr:0.51),(Ni:1.18),(Mo:1.67),(Ba:13.43)
##DET_HASH   : 12273538-fd48-a23f-0a19-f1e6fa85caef
##CALIB_HASH : 6abaa72c-aa41-8738-0be9-f592914732f3
##WORKING    : 15.0 mm
##DET_NAME   : EDAX All
##DET_MODE   : MediumLE
#SPECTRUM    :
33,
250,
7738,
7162,
55645,
3427,
6255,
4730,
4557,
5127,
9789,
28625,
58433,
28328,
4440,
3735,
6404,
6076,
4159,
3794,
3742,
3580,
3487,
3613,
3266,
3543,
34263,
12807,
4823,
7563,
2748,
3738,
21714,
2547,
5806,
7674,
2760,
5102,
2380,
3587,
2526,
2087,
2021,
1797,
1618,
1577,
1575,
1537,
1457,
1375,
1350,
1349,
1353,
2687,
1837,
1177,
1110,
1051,
1069,
1207,
1029,
967,
912,
880,
919,
895,
807,
809,
793,
736,
745,
720,
683,
671,
639,
586,
579,
539,
547,
501,
569,
529,
490,
463,
421,
427,
424,
441,
377,
375,
366,
338,
349,
299,
264,
297,
242,
238,
245,
221,
229,
177,
201,
167,
194,
158,
154,
147,
135,
130,
122,
118,
103,
145,
90,
95,
97,
82,
74,
65,
59,
65,
65,
40,
67,
47,
48,
46,
24,
30,
26,
33,
20,
23,
13,
21,
21,
10,
6,
7,
5,
4,
1,
0,
0,
1,
1,
0,
2,
1,
0,
0,
1,
0,
0,
0,
0,
0,
0,
0,
0,
0,
0,
0,
0,
0,
0,
0,
0,
0,
0,
0,
0,
0,
0,
0,
0,
0,
0,
0,
0,
0,
0,
0,
0,
0,
0,
0,
0,
0,
0,
0,
0,
0,
0,
0,
0,
0,
0,
0,
0,
0,
0,
0,
0,
0,
0,
0,
0,
0,
0,
0,
0,
0,
0,
0,
0,
0,
0,
0,
0,
0,
0,
0,
0,
0,
0,
0,
0,
0,
0,
0,
0,
0,
0,
0,
0,
0,
0,
0,
0,
0,
0,
0,
0,
0,
0,
0,
0,
0,
0,
0,
0,
0,
0,
0,
0,
0,
0,
0,
0,
0,
0,
0,
0,
0,
0,
0,
0,
0,
0,
0,
0,
0,
0,
0,
0,
0,
0,
0,
0,
0,
0,
0,
0,
0,
0,
0,
0,
0,
0,
0,
0,
0,
#ENDOFDATA   :

File: GM IIIB K1132[4][4].msa
#FORMAT      : EMSA/MAS Spectral Data File
#VERSION     : 1.0
#TITLE       : GM IIIB K1132[4][all]
#DATE        : 10-SEP-2025
#TIME        : 17:35
#OWNER       : Unknown
#NPOINTS     : 4096
#NCOLUMNS    : 1
#XUNITS      : eV
#YUNITS      : counts
#DATATYPE    : Y
#XPERCHAN    : 9.99778
#OFFSET      : 1.69135
#BEAMKV      : 20
#SIGNALTYPE  : EDS
#ELEVANGLE   : 35
#AZIMANGLE   : 0
#LIVETIME    : 240.094
#REALTIME    : 258.737
#PROBECUR    : 1.22427
#TAUWIND     : 0
#TDEADLYR    : 0
#TACTLYR     : 0.045
#TALWIND     : 0.025
#CHOFFSET    : 0.0
#XLABEL      : Energy (eV)
#YLABEL      : Counts
#XPOSITION   : 7.10243
#YPOSITION   : 16.28055
#ZPOSITION   : 34.06144
#EDSDET      : SD
##SPECIMEN   : GM IIIB K1132[4][all]
##D2STDCMP   : K1132,(Li:2.32),(O:41.34),(Al:7.94),(Si:21.39),(Ca:10.72),(Cr:0.51),(Ni:1.18),(Mo:1.67),(Ba:13.43)
##DET_HASH   : 12273538-fd48-a23f-0a19-f1e6fa85caef
##CALIB_HASH : 6abaa72c-aa41-8738-0be9-f592914732f3
##WORKING    : 15.0 mm
##DET_NAME   : EDAX All
##DET_MODE   : MediumLE
#SPECTRUM    :
20,
221,
8195,
7115,
55331,
3660,
6182,
4750,
4432,
5035,
9804,
28549,
58413,
28240,
4485,
3915,
6104,
6178,
3986,
3859,
3696,
3469,
3397,
3487,
3393,
3729,
34696,
12919,
4813,
7524,
2672,
3702,
21710,
2608,
5799,
7578,
2775,
5031,
2432,
3360,
2430,
2127,
1966,
1740,
1574,
1622,
1620,
1505,
1451,
1348,
1354,
1310,
1243,
2628,
1782,
1119,
1154,
1108,
1005,
1316,
1064,
991,
927,
903,
878,
825,
760,
755,
754,
722,
765,
719,
688,
654,
661,
635,
554,
535,
546,
527,
529,
467,
490,
471,
439,
410,
358,
405,
344,
370,
323,
363,
306,
305,
259,
262,
275,
252,
238,
214,
238,
205,
169,
178,
159,
180,
175,
155,
152,
132,
123,
108,
135,
114,
90,
87,
82,
78,
79,
71,
51,
56,
61,
52,
36,
28,
39,
44,
44,
29,
24,
27,
23,
28,
17,
18,
9,
15,
9,
7,
3,
5,
1,
1,
3,
2,
1,
0,
0,
1,
0,
0,
0,
0,
0,
0,
0,
0,
0,
0,
0,
0,
0,
0,
0,
0,
0,
0,
0,
0,
0,
0,
0,
0,
1,
0,
0,
0,
0,
0,
0,
0,
0,
1,
0,
0,
0,
0,
0,
0,
0,
0,
0,
0,
0,
0,
0,
0,
0,
0,
0,
0,
0,
0,
0,
0,
0,
0,
0,
0,
0,
0,
0,
0,
0,
0,
0,
0,
0,
1,
0,
0,
0,
0,
0,
0,
0,
0,
0,
0,
0,
0,
0,
0,
0,
0,
0,
0,
0,
0,
0,
0,
0,
0,
0,
0,
0,
0,
0,
0,
0,
0,
0,
0,
0,
0,
0,
0,
0,
0,
0,
0,
0,
0,
0,
0,
0,
0,
0,
0,
0,
0,
0,
0,
0,
0,
0,
0,
0,
0,
0,
0,
0,
0,
0,
0,
0,
0,
0,
0,
0,
0,
0,
0,
#ENDOFDATA   :