Folder: spex_quant/N132962/Quantification/20 keV/Glass Mount IIIB (part 3)

File: GM IIIB K371[4][4].msa
#FORMAT      : EMSA/MAS Spectral Data File
#VERSION     : 1.0
#TITLE       : GM IIIB K371[4][all]
#DATE        : 10-SEP-2025
#TIME        : 14:45
#OWNER       : Unknown
#NPOINTS     : 4096
#NCOLUMNS    : 1
#XUNITS      : eV
#YUNITS      : counts
#DATATYPE    : Y
#XPERCHAN    : 9.99778
#OFFSET      : 1.69135
#BEAMKV      : 20
#SIGNALTYPE  : EDS
#ELEVANGLE   : 35
#AZIMANGLE   : 0
#LIVETIME    : 240.24
#REALTIME    : 261.996
#PROBECUR    : 1.22592
#TAUWIND     : 0
#TDEADLYR    : 0
#TACTLYR     : 0.045
#TALWIND     : 0.025
#CHOFFSET    : 0.0
#XLABEL      : Energy (eV)
#YLABEL      : Counts
#XPOSITION   : 11.55697
#YPOSITION   : 5.35166
#ZPOSITION   : 34.06144
#EDSDET      : SD
##SPECIMEN   : GM IIIB K371[4][all]
##D2STDCMP   : K371,(O:31.93),(Si:23.08),(Zn:3.07),(Ba:41.92)
##DET_HASH   : 12273538-fd48-a23f-0a19-f1e6fa85caef
##CALIB_HASH : 6abaa72c-aa41-8738-0be9-f592914732f3
##WORKING    : 15.0 mm
##DET_NAME   : EDAX All
##DET_MODE   : MediumLE
#SPECTRUM    :
20,
331,
8661,
10981,
72989,
6017,
5871,
12018,
5070,
5071,
5755,
6824,
58802,
29259,
4678,
4836,
5485,
5204,
5048,
5301,
5112,
4923,
5023,
4798,
4666,
4708,
4421,
4354,
6136,
4402,
4041,
8116,
69704,
4756,
16551,
22003,
5672,
13695,
3345,
4635,
4733,
3737,
3300,
2668,
2448,
2380,
2418,
2248,
2126,
2130,
2097,
1976,
2003,
2069,
1916,
1787,
1658,
1722,
1653,
1650,
1637,
2781,
3747,
1587,
1455,
1398,
1426,
1328,
1556,
1400,
1166,
1222,
1164,
1048,
1045,
992,
1010,
909,
936,
873,
824,
888,
816,
752,
720,
725,
680,
664,
685,
610,
632,
556,
556,
513,
494,
529,
450,
448,
413,
404,
350,
389,
332,
339,
288,
279,
296,
279,
282,
257,
224,
195,
204,
208,
168,
172,
149,
157,
151,
170,
132,
124,
114,
92,
95,
84,
83,
73,
77,
63,
54,
50,
47,
45,
39,
37,
20,
26,
23,
15,
13,
5,
1,
1,
3,
2,
3,
0,
2,
1,
2,
2,
1,
1,
0,
1,
0,
0,
0,
0,
0,
1,
0,
1,
1,
0,
0,
0,
1,
1,
0,
0,
1,
1,
0,
0,
1,
0,
0,
1,
0,
0,
0,
0,
0,
0,
0,
0,
0,
0,
0,
0,
0,
0,
0,
0,
0,
0,
0,
0,
0,
0,
0,
0,
1,
0,
0,
0,
2,
0,
0,
0,
0,
0,
0,
0,
0,
0,
0,
0,
0,
0,
0,
0,
0,
0,
0,
0,
0,
0,
0,
0,
0,
0,
0,
0,
0,
0,
0,
0,
0,
0,
0,
0,
0,
0,
0,
0,
0,
0,
0,
0,
0,
0,
0,
0,
0,
0,
0,
0,
0,
0,
0,
0,
0,
0,
0,
0,
0,
0,
0,
0,
0,
0,
0,
0,
0,
0,
0,
0,
0,
0,
0,
0,
0,
0,
0,
0,
0,
0,
0,
0,
0,
0,
#ENDOFDATA   :

File: GM IIIB K373[0][4].msa
#FORMAT      : EMSA/MAS Spectral Data File
#VERSION     : 1.0
#TITLE       : GM IIIB K373[0][all]
#DATE        : 10-SEP-2025
#TIME        : 18:12
#OWNER       : Unknown
#NPOINTS     : 4096
#NCOLUMNS    : 1
#XUNITS      : eV
#YUNITS      : counts
#DATATYPE    : Y
#XPERCHAN    : 9.99778
#OFFSET      : 1.69135
#BEAMKV      : 20
#SIGNALTYPE  : EDS
#ELEVANGLE   : 35
#AZIMANGLE   : 0
#LIVETIME    : 240.064
#REALTIME    : 260.016
#PROBECUR    : 1.22475
#TAUWIND     : 0
#TDEADLYR    : 0
#TACTLYR     : 0.045
#TALWIND     : 0.025
#CHOFFSET    : 0.0
#XLABEL      : Energy (eV)
#YLABEL      : Counts
#XPOSITION   : 4.39833
#YPOSITION   : 2.3185
#ZPOSITION   : 34.00159
#EDSDET      : SD
##SPECIMEN   : GM IIIB K373[0][all]
##D2STDCMP   : K373,(O:42.34),(Na:10.43),(Si:31.85),(Zn:4.94),(Ba:10.38),(U:0.05)
##DET_HASH   : 12273538-fd48-a23f-0a19-f1e6fa85caef
##CALIB_HASH : 6abaa72c-aa41-8738-0be9-f592914732f3
##WORKING    : 15.0 mm
##DET_NAME   : EDAX All
##DET_MODE   : MediumLE
#SPECTRUM    :
20,
254,
5413,
10256,
82873,
3546,
4417,
24828,
6207,
4285,
4747,
6460,
90763,
42233,
3071,
3114,
4317,
3340,
3247,
3289,
3397,
3068,
3088,
3057,
3055,
3348,
2812,
2702,
3025,
2666,
2460,
3468,
17654,
2489,
5046,
6523,
2535,
4356,
1952,
2337,
2188,
1847,
1794,
1600,
1635,
1482,
1522,
1362,
1356,
1251,
1279,
1121,
1215,
1159,
1135,
1086,
1034,
998,
1019,
922,
922,
2895,
4209,
859,
771,
793,
727,
774,
1184,
956,
650,
645,
643,
589,
611,
537,
538,
538,
495,
488,
486,
455,
416,
412,
381,
393,
333,
341,
337,
335,
297,
320,
299,
233,
252,
264,
241,
214,
211,
177,
193,
160,
150,
142,
153,
144,
120,
137,
120,
127,
112,
110,
95,
100,
85,
77,
69,
71,
65,
63,
52,
56,
50,
37,
45,
36,
37,
25,
36,
26,
17,
22,
9,
14,
17,
7,
14,
7,
5,
3,
10,
3,
2,
1,
1,
0,
0,
0,
0,
1,
0,
1,
0,
0,
0,
0,
0,
1,
0,
0,
0,
1,
1,
0,
1,
0,
0,
0,
0,
0,
0,
0,
0,
0,
0,
0,
0,
0,
0,
0,
0,
0,
0,
0,
0,
0,
0,
0,
0,
0,
0,
0,
0,
0,
0,
0,
0,
0,
0,
0,
0,
0,
0,
0,
0,
0,
0,
0,
0,
0,
0,
0,
0,
0,
0,
0,
0,
0,
0,
0,
0,
0,
0,
0,
0,
0,
0,
0,
0,
0,
0,
0,
0,
0,
0,
0,
0,
0,
0,
0,
0,
0,
0,
0,
0,
0,
0,
0,
0,
0,
0,
0,
0,
0,
0,
0,
0,
0,
0,
0,
0,
0,
0,
0,
0,
0,
0,
0,
0,
0,
0,
0,
0,
0,
0,
0,
0,
0,
0,
0,
0,
0,
0,
0,
0,
0,
0,
0,
0,
0,
0,
0,
0,
0,
#ENDOFDATA   :

File: GM IIIB K373[2][4].msa
#FORMAT      : EMSA/MAS Spectral Data File
#VERSION     : 1.0
#TITLE       : GM IIIB K373[2][all]
#DATE        : 10-SEP-2025
#TIME        : 18:14
#OWNER       : Unknown
#NPOINTS     : 4096
#NCOLUMNS    : 1
#XUNITS      : eV
#YUNITS      : counts
#DATATYPE    : Y
#XPERCHAN    : 9.99778
#OFFSET      : 1.69135
#BEAMKV      : 20
#SIGNALTYPE  : EDS
#ELEVANGLE   : 35
#AZIMANGLE   : 0
#LIVETIME    : 240.165
#REALTIME    : 260.145
#PROBECUR    : 1.22475
#TAUWIND     : 0
#TDEADLYR    : 0
#TACTLYR     : 0.045
#TALWIND     : 0.025
#CHOFFSET    : 0.0
#XLABEL      : Energy (eV)
#YLABEL      : Counts
#XPOSITION   : 4.35204
#YPOSITION   : 2.3336
#ZPOSITION   : 34.00159
#EDSDET      : SD
##SPECIMEN   : GM IIIB K373[2][all]
##D2STDCMP   : K373,(O:42.34),(Na:10.43),(Si:31.85),(Zn:4.94),(Ba:10.38),(U:0.05)
##DET_HASH   : 12273538-fd48-a23f-0a19-f1e6fa85caef
##CALIB_HASH : 6abaa72c-aa41-8738-0be9-f592914732f3
##WORKING    : 15.0 mm
##DET_NAME   : EDAX All
##DET_MODE   : MediumLE
#SPECTRUM    :
19,
248,
5866,
10227,
82467,
3569,
4424,
25554,
6285,
4094,
4816,
6275,
90759,
41904,
3195,
3206,
4387,
3380,
3213,
3466,
3589,
3189,
3236,
3122,
3085,
3449,
2804,
2786,
3024,
2561,
2498,
3440,
17758,
2529,
5109,
6384,
2496,
4439,
1953,
2278,
2223,
1869,
1746,
1564,
1583,
1516,
1476,
1319,
1392,
1327,
1266,
1201,
1155,
1219,
1103,
1031,
1025,
1007,
950,
944,
955,
2871,
4271,
887,
780,
716,
723,
746,
1222,
948,
692,
633,
614,
590,
619,
550,
547,
494,
487,
471,
445,
452,
418,
428,
379,
391,
356,
347,
330,
288,
288,
289,
261,
263,
270,
255,
219,
220,
208,
201,
210,
179,
173,
153,
147,
152,
146,
146,
117,
113,
95,
98,
117,
82,
87,
87,
80,
71,
81,
45,
52,
48,
61,
30,
44,
45,
43,
29,
24,
22,
27,
23,
16,
25,
16,
8,
11,
14,
9,
5,
10,
1,
4,
1,
1,
0,
1,
0,
0,
0,
1,
1,
0,
0,
0,
0,
2,
0,
0,
0,
0,
0,
0,
0,
0,
0,
0,
0,
0,
1,
0,
0,
0,
0,
0,
2,
0,
0,
0,
0,
0,
0,
0,
0,
0,
0,
0,
0,
0,
0,
0,
0,
0,
0,
0,
0,
0,
0,
0,
0,
0,
0,
0,
0,
0,
0,
0,
0,
0,
0,
0,
0,
0,
0,
0,
0,
0,
0,
0,
0,
0,
0,
0,
0,
0,
0,
0,
0,
0,
0,
0,
0,
0,
0,
0,
0,
0,
0,
0,
0,
0,
0,
0,
0,
0,
0,
0,
0,
0,
0,
0,
0,
0,
0,
0,
0,
0,
0,
0,
0,
0,
0,
0,
0,
0,
0,
0,
0,
0,
0,
0,
0,
0,
0,
0,
0,
0,
0,
0,
0,
0,
0,
0,
0,
0,
0,
0,
0,
0,
0,
0,
0,
0,
0,
#ENDOFDATA   :

File: GM IIIB K373[3][4].msa
#FORMAT      : EMSA/MAS Spectral Data File
#VERSION     : 1.0
#TITLE       : GM IIIB K373[3][all]
#DATE        : 10-SEP-2025
#TIME        : 18:15
#OWNER       : Unknown
#NPOINTS     : 4096
#NCOLUMNS    : 1
#XUNITS      : eV
#YUNITS      : counts
#DATATYPE    : Y
#XPERCHAN    : 9.99778
#OFFSET      : 1.69135
#BEAMKV      : 20
#SIGNALTYPE  : EDS
#ELEVANGLE   : 35
#AZIMANGLE   : 0
#LIVETIME    : 240.199
#REALTIME    : 260.193
#PROBECUR    : 1.22475
#TAUWIND     : 0
#TDEADLYR    : 0
#TACTLYR     : 0.045
#TALWIND     : 0.025
#CHOFFSET    : 0.0
#XLABEL      : Energy (eV)
#YLABEL      : Counts
#XPOSITION   : 4.41407
#YPOSITION   : 2.30917
#ZPOSITION   : 34.00159
#EDSDET      : SD
##SPECIMEN   : GM IIIB K373[3][all]
##D2STDCMP   : K373,(O:42.34),(Na:10.43),(Si:31.85),(Zn:4.94),(Ba:10.38),(U:0.05)
##DET_HASH   : 12273538-fd48-a23f-0a19-f1e6fa85caef
##CALIB_HASH : 6abaa72c-aa41-8738-0be9-f592914732f3
##WORKING    : 15.0 mm
##DET_NAME   : EDAX All
##DET_MODE   : MediumLE
#SPECTRUM    :
23,
271,
5753,
10469,
82844,
3441,
4470,
25916,
6345,
4044,
4907,
6336,
90085,
42461,
3172,
3249,
4284,
3362,
3314,
3424,
3476,
3205,
3122,
3077,
3025,
3537,
2841,
2717,
2978,
2647,
2389,
3378,
17639,
2485,
5049,
6339,
2592,
4327,
1876,
2207,
2208,
1977,
1771,
1625,
1528,
1436,
1459,
1387,
1305,
1295,
1318,
1189,
1187,
1203,
1116,
999,
1069,
1031,
973,
923,
873,
2811,
4159,
887,
796,
739,
812,
798,
1202,
900,
660,
631,
615,
592,
585,
549,
538,
559,
536,
440,
472,
436,
412,
424,
380,
338,
370,
326,
354,
350,
335,
275,
285,
273,
268,
254,
233,
195,
199,
213,
199,
166,
168,
156,
155,
130,
132,
142,
104,
113,
120,
110,
86,
95,
92,
83,
75,
63,
71,
45,
62,
44,
46,
60,
35,
36,
33,
28,
30,
22,
30,
22,
29,
17,
17,
18,
13,
8,
8,
6,
6,
4,
1,
1,
0,
1,
0,
0,
0,
0,
1,
2,
1,
1,
1,
0,
0,
1,
0,
1,
2,
0,
0,
0,
0,
0,
1,
0,
0,
0,
0,
0,
0,
1,
0,
0,
0,
0,
0,
0,
0,
0,
0,
1,
0,
0,
0,
0,
0,
0,
0,
0,
0,
0,
0,
0,
0,
0,
0,
0,
0,
0,
0,
0,
0,
0,
0,
0,
0,
0,
0,
0,
0,
0,
0,
0,
0,
0,
0,
0,
0,
0,
0,
0,
0,
0,
0,
0,
0,
0,
0,
0,
0,
0,
0,
0,
0,
0,
0,
0,
0,
0,
0,
0,
0,
0,
0,
0,
0,
0,
0,
0,
0,
0,
0,
0,
0,
0,
0,
0,
0,
0,
0,
0,
0,
0,
0,
0,
0,
0,
0,
0,
0,
0,
0,
0,
0,
0,
0,
0,
0,
0,
0,
0,
0,
0,
0,
0,
0,
0,
0,
0,
0,
0,
#ENDOFDATA   :

File: GM IIIB K373[4][4].msa
#FORMAT      : EMSA/MAS Spectral Data File
#VERSION     : 1.0
#TITLE       : GM IIIB K373[4][all]
#DATE        : 10-SEP-2025
#TIME        : 18:16
#OWNER       : Unknown
#NPOINTS     : 4096
#NCOLUMNS    : 1
#XUNITS      : eV
#YUNITS      : counts
#DATATYPE    : Y
#XPERCHAN    : 9.99778
#OFFSET      : 1.69135
#BEAMKV      : 20
#SIGNALTYPE  : EDS
#ELEVANGLE   : 35
#AZIMANGLE   : 0
#LIVETIME    : 240.135
#REALTIME    : 260.077
#PROBECUR    : 1.22475
#TAUWIND     : 0
#TDEADLYR    : 0
#TACTLYR     : 0.045
#TALWIND     : 0.025
#CHOFFSET    : 0.0
#XLABEL      : Energy (eV)
#YLABEL      : Counts
#XPOSITION   : 4.36931
#YPOSITION   : 2.3697
#ZPOSITION   : 34.00159
#EDSDET      : SD
##SPECIMEN   : GM IIIB K373[4][all]
##D2STDCMP   : K373,(O:42.34),(Na:10.43),(Si:31.85),(Zn:4.94),(Ba:10.38),(U:0.05)
##DET_HASH   : 12273538-fd48-a23f-0a19-f1e6fa85caef
##CALIB_HASH : 6abaa72c-aa41-8738-0be9-f592914732f3
##WORKING    : 15.0 mm
##DET_NAME   : EDAX All
##DET_MODE   : MediumLE
#SPECTRUM    :
12,
231,
5684,
10000,
82207,
3792,
4424,
25152,
6251,
4149,
4876,
6258,
90228,
41854,
3079,
3223,
4236,
3341,
3360,
3303,
3479,
3205,
3117,
3098,
3111,
3411,
2798,
2707,
3058,
2596,
2513,
3464,
17832,
2402,
5092,
6343,
2538,
4370,
1974,
2242,
2223,
1965,
1849,
1534,
1543,
1476,
1589,
1425,
1343,
1311,
1237,
1230,
1227,
1223,
1055,
1094,
986,
978,
981,
973,
943,
2875,
4234,
886,
801,
806,
777,
770,
1177,
983,
625,
613,
647,
617,
568,
574,
572,
497,
497,
483,
444,
423,
434,
410,
412,
356,
377,
324,
304,
328,
315,
302,
279,
265,
260,
272,
241,
224,
219,
180,
218,
182,
143,
154,
124,
131,
137,
156,
130,
123,
122,
96,
100,
77,
100,
68,
75,
83,
64,
69,
56,
53,
59,
57,
47,
37,
33,
26,
28,
25,
19,
26,
20,
19,
13,
11,
10,
5,
5,
5,
8,
3,
1,
2,
2,
0,
0,
0,
0,
0,
0,
1,
0,
0,
0,
0,
1,
0,
0,
0,
1,
0,
0,
0,
1,
0,
0,
0,
0,
0,
0,
0,
0,
0,
0,
0,
0,
0,
0,
0,
0,
0,
0,
0,
0,
1,
0,
0,
0,
0,
0,
0,
1,
0,
0,
0,
0,
0,
0,
0,
0,
0,
0,
0,
0,
0,
0,
0,
0,
0,
0,
0,
0,
0,
0,
0,
0,
0,
0,
0,
0,
0,
0,
0,
0,
0,
0,
0,
0,
0,
0,
0,
0,
0,
0,
0,
0,
0,
0,
0,
0,
0,
0,
0,
0,
0,
0,
0,
0,
0,
0,
0,
0,
0,
0,
0,
0,
0,
0,
0,
0,
0,
0,
0,
0,
0,
0,
0,
0,
0,
0,
0,
0,
0,
0,
0,
0,
0,
0,
0,
0,
0,
0,
0,
0,
0,
0,
0,
0,
0,
0,
0,
0,
0,
#ENDOFDATA   :

File: GM IIIB K408[0][4].msa
#FORMAT      : EMSA/MAS Spectral Data File
#VERSION     : 1.0
#TITLE       : GM IIIB K408[0][all]
#DATE        : 10-SEP-2025
#TIME        : 14:34
#OWNER       : Unknown
#NPOINTS     : 4096
#NCOLUMNS    : 1
#XUNITS      : eV
#YUNITS      : counts
#DATATYPE    : Y
#XPERCHAN    : 9.99778
#OFFSET      : 1.69135
#BEAMKV      : 20
#SIGNALTYPE  : EDS
#ELEVANGLE   : 35
#AZIMANGLE   : 0
#LIVETIME    : 240.2031
#REALTIME    : 266.648
#PROBECUR    : 1.22574
#TAUWIND     : 0
#TDEADLYR    : 0
#TACTLYR     : 0.045
#TALWIND     : 0.025
#CHOFFSET    : 0.0
#XLABEL      : Energy (eV)
#YLABEL      : Counts
#XPOSITION   : 9.61465
#YPOSITION   : 4.76779
#ZPOSITION   : 34.06144
#EDSDET      : SD
##SPECIMEN   : GM IIIB K408[0][all]
##D2STDCMP   : K408,(O:21.32),(Si:14.02),(Eu:4.32),(Pb:60.34)
##DET_HASH   : 12273538-fd48-a23f-0a19-f1e6fa85caef
##CALIB_HASH : 6abaa72c-aa41-8738-0be9-f592914732f3
##WORKING    : 15.0 mm
##DET_NAME   : EDAX All
##DET_MODE   : MediumLE
#SPECTRUM    :
28,
525,
11781,
7448,
28869,
7947,
7635,
7788,
11806,
9017,
10117,
10966,
52748,
38452,
8509,
9024,
18854,
142192,
24436,
12485,
5417,
6004,
7529,
5607,
5204,
5561,
5173,
5262,
5046,
5147,
5290,
5031,
5408,
5058,
5016,
4798,
4709,
4744,
4493,
4411,
4488,
5121,
7254,
4006,
3954,
4118,
5975,
4225,
3710,
4140,
3582,
3356,
3303,
3640,
3380,
3135,
3124,
2945,
2769,
2802,
2713,
2646,
2579,
2478,
2490,
2725,
2738,
2287,
2265,
2175,
2119,
2000,
1926,
1990,
2956,
11140,
6107,
1779,
1668,
1567,
1597,
1520,
1534,
1350,
1393,
1350,
1332,
1392,
1333,
1930,
5046,
2197,
1177,
1202,
929,
841,
833,
816,
718,
748,
699,
665,
617,
655,
620,
864,
732,
505,
582,
490,
447,
440,
382,
394,
331,
351,
344,
284,
291,
239,
254,
237,
247,
203,
234,
182,
169,
158,
140,
142,
121,
95,
97,
85,
71,
70,
65,
60,
51,
40,
37,
16,
7,
11,
2,
5,
4,
3,
6,
0,
3,
3,
3,
3,
3,
2,
1,
1,
3,
1,
1,
3,
1,
2,
2,
2,
2,
1,
1,
1,
3,
0,
1,
2,
1,
1,
0,
1,
2,
2,
1,
0,
2,
1,
1,
0,
1,
1,
0,
0,
0,
0,
1,
1,
0,
0,
0,
0,
0,
3,
1,
1,
0,
1,
0,
1,
0,
0,
0,
0,
0,
0,
0,
0,
0,
0,
0,
0,
0,
0,
0,
0,
0,
0,
1,
1,
0,
0,
0,
0,
0,
0,
0,
0,
0,
0,
0,
0,
0,
0,
0,
0,
0,
0,
0,
0,
0,
0,
0,
0,
0,
0,
0,
0,
0,
0,
0,
0,
0,
0,
0,
0,
0,
0,
0,
0,
0,
0,
0,
0,
0,
0,
0,
0,
0,
0,
0,
0,
0,
0,
0,
0,
0,
0,
0,
0,
0,
0,
0,
0,
0,
0,
0,
0,
#ENDOFDATA   :

File: GM IIIB K408[1][4].msa
#FORMAT      : EMSA/MAS Spectral Data File
#VERSION     : 1.0
#TITLE       : GM IIIB K408[1][all]
#DATE        : 10-SEP-2025
#TIME        : 14:35
#OWNER       : Unknown
#NPOINTS     : 4096
#NCOLUMNS    : 1
#XUNITS      : eV
#YUNITS      : counts
#DATATYPE    : Y
#XPERCHAN    : 9.99778
#OFFSET      : 1.69135
#BEAMKV      : 20
#SIGNALTYPE  : EDS
#ELEVANGLE   : 35
#AZIMANGLE   : 0
#LIVETIME    : 240.212
#REALTIME    : 266.6666
#PROBECUR    : 1.22592
#TAUWIND     : 0
#TDEADLYR    : 0
#TACTLYR     : 0.045
#TALWIND     : 0.025
#CHOFFSET    : 0.0
#XLABEL      : Energy (eV)
#YLABEL      : Counts
#XPOSITION   : 9.56988
#YPOSITION   : 4.79688
#ZPOSITION   : 34.06144
#EDSDET      : SD
##SPECIMEN   : GM IIIB K408[1][all]
##D2STDCMP   : K408,(O:21.32),(Si:14.02),(Eu:4.32),(Pb:60.34)
##DET_HASH   : 12273538-fd48-a23f-0a19-f1e6fa85caef
##CALIB_HASH : 6abaa72c-aa41-8738-0be9-f592914732f3
##WORKING    : 15.0 mm
##DET_NAME   : EDAX All
##DET_MODE   : MediumLE
#SPECTRUM    :
22,
553,
12256,
7425,
29298,
8047,
7666,
7619,
11738,
9082,
10083,
10800,
52113,
38260,
8676,
9028,
18483,
142720,
24205,
12118,
5405,
5891,
7477,
5522,
5364,
5663,
5214,
5259,
5093,
5303,
5102,
4943,
5578,
4944,
5030,
4975,
4642,
4596,
4561,
4475,
4375,
5120,
7451,
4122,
3959,
4056,
6003,
4289,
3832,
4315,
3595,
3438,
3259,
3598,
3362,
3102,
3036,
3047,
2873,
2822,
2682,
2675,
2612,
2483,
2555,
2754,
2748,
2253,
2253,
2115,
2122,
2154,
2053,
2016,
2960,
11155,
5908,
1762,
1686,
1599,
1569,
1581,
1480,
1474,
1330,
1375,
1319,
1416,
1417,
1846,
5037,
2242,
1218,
1249,
945,
880,
866,
820,
755,
733,
690,
706,
662,
656,
645,
867,
714,
568,
583,
466,
465,
450,
386,
404,
352,
312,
349,
297,
276,
280,
231,
246,
195,
215,
198,
161,
176,
165,
140,
131,
109,
111,
100,
98,
70,
67,
50,
48,
40,
42,
32,
17,
10,
3,
3,
3,
3,
2,
3,
0,
1,
2,
5,
1,
3,
1,
2,
4,
1,
3,
3,
3,
3,
2,
0,
1,
2,
1,
1,
2,
0,
3,
1,
1,
0,
1,
2,
2,
2,
1,
1,
3,
0,
1,
0,
0,
0,
1,
1,
0,
0,
1,
0,
0,
0,
0,
1,
0,
0,
1,
1,
0,
0,
1,
1,
0,
0,
0,
0,
0,
1,
0,
0,
0,
0,
0,
0,
0,
0,
0,
0,
0,
0,
0,
1,
1,
0,
0,
1,
0,
0,
0,
0,
0,
0,
0,
0,
0,
0,
0,
0,
0,
0,
0,
0,
0,
0,
0,
0,
0,
0,
0,
0,
0,
0,
0,
0,
0,
0,
0,
0,
0,
0,
0,
0,
0,
0,
0,
0,
0,
0,
0,
0,
0,
0,
0,
0,
0,
0,
0,
0,
0,
0,
0,
0,
0,
0,
0,
0,
0,
0,
0,
0,
0,
#ENDOFDATA   :

File: GM IIIB K408[2][4].msa
#FORMAT      : EMSA/MAS Spectral Data File
#VERSION     : 1.0
#TITLE       : GM IIIB K408[2][all]
#DATE        : 10-SEP-2025
#TIME        : 14:36
#OWNER       : Unknown
#NPOINTS     : 4096
#NCOLUMNS    : 1
#XUNITS      : eV
#YUNITS      : counts
#DATATYPE    : Y
#XPERCHAN    : 9.99778
#OFFSET      : 1.69135
#BEAMKV      : 20
#SIGNALTYPE  : EDS
#ELEVANGLE   : 35
#AZIMANGLE   : 0
#LIVETIME    : 240.249
#REALTIME    : 266.724
#PROBECUR    : 1.22592
#TAUWIND     : 0
#TDEADLYR    : 0
#TACTLYR     : 0.045
#TALWIND     : 0.025
#CHOFFSET    : 0.0
#XLABEL      : Energy (eV)
#YLABEL      : Counts
#XPOSITION   : 9.63788
#YPOSITION   : 4.81892
#ZPOSITION   : 34.06144
#EDSDET      : SD
##SPECIMEN   : GM IIIB K408[2][all]
##D2STDCMP   : K408,(O:21.32),(Si:14.02),(Eu:4.32),(Pb:60.34)
##DET_HASH   : 12273538-fd48-a23f-0a19-f1e6fa85caef
##CALIB_HASH : 6abaa72c-aa41-8738-0be9-f592914732f3
##WORKING    : 15.0 mm
##DET_NAME   : EDAX All
##DET_MODE   : MediumLE
#SPECTRUM    :
20,
531,
12167,
7613,
29489,
8082,
7755,
7715,
11752,
9413,
9964,
10894,
52916,
38369,
8774,
8938,
18487,
142738,
24138,
12270,
5449,
6045,
7497,
5660,
5215,
5616,
5300,
5323,
5074,
5245,
5211,
4988,
5538,
4962,
4994,
4873,
4635,
4708,
4342,
4458,
4405,
5086,
7374,
4150,
4104,
4022,
5942,
4189,
3851,
4229,
3550,
3404,
3328,
3652,
3291,
3258,
3003,
2867,
2882,
2750,
2701,
2593,
2602,
2527,
2418,
2679,
2726,
2364,
2205,
2095,
2117,
2136,
2041,
2044,
3015,
11127,
6061,
1759,
1694,
1619,
1583,
1507,
1427,
1374,
1353,
1369,
1362,
1367,
1309,
1881,
5043,
2190,
1220,
1218,
995,
886,
786,
798,
785,
699,
712,
731,
640,
603,
617,
834,
701,
546,
576,
496,
466,
406,
366,
390,
353,
310,
307,
284,
291,
287,
251,
260,
234,
201,
176,
172,
162,
161,
149,
123,
117,
119,
84,
91,
79,
71,
64,
50,
46,
32,
23,
24,
8,
8,
4,
0,
3,
2,
2,
1,
2,
4,
3,
1,
2,
2,
1,
1,
2,
3,
3,
5,
1,
1,
2,
0,
2,
1,
1,
3,
0,
1,
1,
0,
1,
3,
2,
0,
0,
2,
0,
0,
0,
0,
0,
1,
0,
2,
0,
0,
0,
0,
0,
0,
0,
0,
1,
1,
0,
0,
1,
1,
0,
0,
0,
0,
0,
0,
2,
0,
0,
0,
2,
0,
0,
0,
0,
1,
1,
2,
0,
0,
0,
0,
0,
1,
0,
0,
0,
0,
0,
0,
0,
0,
0,
0,
0,
0,
0,
0,
0,
0,
0,
0,
0,
0,
0,
0,
0,
0,
0,
0,
0,
0,
0,
0,
0,
0,
0,
0,
0,
0,
0,
0,
0,
0,
0,
0,
0,
0,
0,
0,
0,
0,
0,
0,
0,
0,
0,
0,
0,
0,
0,
0,
0,
0,
0,
0,
0,
0,
0,
0,
0,
0,
#ENDOFDATA   :

File: GM IIIB K411[0][4].msa
#FORMAT      : EMSA/MAS Spectral Data File
#VERSION     : 1.0
#TITLE       : GM IIIB K411[0][all]
#DATE        : 10-SEP-2025
#TIME        : 14:22
#OWNER       : Unknown
#NPOINTS     : 4096
#NCOLUMNS    : 1
#XUNITS      : eV
#YUNITS      : counts
#DATATYPE    : Y
#XPERCHAN    : 9.99778
#OFFSET      : 1.69135
#BEAMKV      : 20
#SIGNALTYPE  : EDS
#ELEVANGLE   : 35
#AZIMANGLE   : 0
#LIVETIME    : 240.211
#REALTIME    : 258.86
#PROBECUR    : 1.22574
#TAUWIND     : 0
#TDEADLYR    : 0
#TACTLYR     : 0.045
#TALWIND     : 0.025
#CHOFFSET    : 0.0
#XLABEL      : Energy (eV)
#YLABEL      : Counts
#XPOSITION   : 5.11244
#YPOSITION   : 5.11443
#ZPOSITION   : 34.06144
#EDSDET      : SD
##SPECIMEN   : GM IIIB K411[0][all]
##D2STDCMP   : K411,(O:42.3664),(Mg:8.8466),(Si:25.3818),(Ca:11.0563),(Fe:11.2088),5.0
##DET_HASH   : 12273538-fd48-a23f-0a19-f1e6fa85caef
##CALIB_HASH : 6abaa72c-aa41-8738-0be9-f592914732f3
##WORKING    : 15.0 mm
##DET_NAME   : EDAX All
##DET_MODE   : MediumLE
#SPECTRUM    :
34,
204,
7000,
6877,
56066,
12144,
3013,
3575,
4699,
74969,
4629,
5649,
73581,
34835,
3846,
3298,
3844,
3305,
3264,
3109,
3214,
3169,
3029,
2896,
2767,
3414,
34482,
12760,
3748,
7079,
2286,
2024,
2152,
2093,
1904,
1923,
1816,
1704,
1597,
1737,
1585,
1590,
1666,
1483,
1545,
7099,
19721,
1451,
1273,
1219,
3228,
2121,
1004,
1112,
964,
952,
913,
860,
858,
867,
826,
718,
762,
740,
690,
673,
644,
615,
630,
579,
573,
566,
562,
521,
521,
458,
509,
434,
462,
412,
378,
355,
360,
342,
347,
324,
312,
298,
268,
278,
244,
245,
253,
228,
245,
199,
189,
218,
192,
155,
131,
158,
144,
150,
146,
103,
138,
124,
92,
109,
96,
89,
73,
77,
67,
62,
80,
56,
48,
47,
51,
39,
35,
40,
36,
37,
39,
28,
18,
34,
20,
18,
24,
12,
14,
9,
9,
5,
6,
5,
4,
2,
1,
0,
1,
1,
0,
0,
0,
2,
0,
0,
0,
0,
1,
0,
0,
0,
0,
0,
0,
0,
0,
0,
0,
0,
0,
0,
0,
0,
0,
0,
0,
0,
1,
0,
0,
0,
0,
0,
0,
0,
0,
0,
0,
0,
0,
0,
0,
0,
1,
0,
0,
0,
0,
1,
0,
0,
0,
0,
0,
0,
0,
0,
0,
0,
0,
0,
0,
0,
1,
0,
0,
0,
0,
0,
0,
0,
0,
0,
0,
0,
0,
0,
0,
0,
0,
0,
0,
0,
0,
0,
0,
0,
0,
0,
0,
0,
0,
0,
0,
0,
0,
0,
0,
0,
0,
0,
0,
0,
0,
0,
0,
0,
0,
0,
0,
0,
0,
0,
0,
0,
0,
0,
0,
0,
0,
0,
0,
0,
0,
0,
0,
0,
0,
0,
0,
0,
0,
0,
0,
0,
0,
0,
0,
0,
0,
0,
0,
0,
0,
0,
0,
0,
#ENDOFDATA   :

File: GM IIIB K411[1][4].msa
#FORMAT      : EMSA/MAS Spectral Data File
#VERSION     : 1.0
#TITLE       : GM IIIB K411[1][all]
#DATE        : 10-SEP-2025
#TIME        : 14:23
#OWNER       : Unknown
#NPOINTS     : 4096
#NCOLUMNS    : 1
#XUNITS      : eV
#YUNITS      : counts
#DATATYPE    : Y
#XPERCHAN    : 9.99778
#OFFSET      : 1.69135
#BEAMKV      : 20
#SIGNALTYPE  : EDS
#ELEVANGLE   : 35
#AZIMANGLE   : 0
#LIVETIME    : 240.206
#REALTIME    : 258.8606
#PROBECUR    : 1.22574
#TAUWIND     : 0
#TDEADLYR    : 0
#TACTLYR     : 0.045
#TALWIND     : 0.025
#CHOFFSET    : 0.0
#XLABEL      : Energy (eV)
#YLABEL      : Counts
#XPOSITION   : 5.07343
#YPOSITION   : 5.09731
#ZPOSITION   : 34.06144
#EDSDET      : SD
##SPECIMEN   : GM IIIB K411[1][all]
##D2STDCMP   : K411,(O:42.3664),(Mg:8.8466),(Si:25.3818),(Ca:11.0563),(Fe:11.2088),5.0
##DET_HASH   : 12273538-fd48-a23f-0a19-f1e6fa85caef
##CALIB_HASH : 6abaa72c-aa41-8738-0be9-f592914732f3
##WORKING    : 15.0 mm
##DET_NAME   : EDAX All
##DET_MODE   : MediumLE
#SPECTRUM    :
34,
225,
7216,
6762,
56416,
12005,
3004,
3532,
4715,
74868,
4718,
5733,
73037,
34602,
3749,
3212,
3839,
3248,
3268,
3174,
3111,
3166,
3063,
2882,
2870,
3418,
34473,
12424,
3882,
7055,
2195,
2090,
2166,
2078,
1914,
1941,
1843,
1725,
1697,
1711,
1531,
1464,
1642,
1442,
1435,
7147,
19578,
1471,
1208,
1369,
3336,
2109,
1059,
1020,
1002,
899,
888,
911,
912,
823,
784,
784,
756,
706,
694,
657,
651,
638,
593,
590,
574,
596,
545,
533,
537,
467,
448,
411,
436,
446,
411,
393,
341,
324,
369,
339,
302,
298,
296,
292,
260,
219,
219,
242,
237,
189,
220,
188,
172,
164,
159,
149,
128,
128,
124,
105,
120,
109,
109,
96,
92,
80,
91,
82,
73,
57,
71,
62,
45,
58,
53,
29,
45,
45,
28,
23,
23,
16,
22,
24,
14,
14,
17,
28,
10,
10,
20,
5,
4,
3,
2,
2,
2,
1,
1,
1,
1,
0,
0,
1,
0,
0,
0,
0,
0,
0,
0,
0,
1,
0,
0,
0,
0,
0,
0,
0,
0,
0,
0,
1,
0,
0,
0,
0,
0,
0,
0,
1,
0,
0,
0,
0,
0,
0,
0,
0,
0,
0,
0,
0,
0,
0,
0,
0,
0,
0,
0,
0,
0,
0,
0,
0,
0,
0,
0,
0,
0,
0,
0,
0,
0,
0,
0,
0,
0,
0,
0,
0,
0,
0,
0,
0,
0,
0,
0,
0,
0,
0,
0,
0,
0,
0,
0,
0,
0,
0,
0,
0,
0,
0,
0,
0,
0,
0,
0,
0,
0,
0,
0,
0,
0,
0,
0,
0,
0,
0,
0,
0,
0,
0,
0,
0,
0,
0,
0,
0,
0,
0,
0,
0,
0,
0,
0,
0,
0,
0,
0,
0,
0,
0,
0,
0,
0,
0,
0,
0,
0,
0,
0,
0,
0,
0,
0,
0,
#ENDOFDATA   :

File: GM IIIB K411[2][4].msa
#FORMAT      : EMSA/MAS Spectral Data File
#VERSION     : 1.0
#TITLE       : GM IIIB K411[2][all]
#DATE        : 10-SEP-2025
#TIME        : 14:25
#OWNER       : Unknown
#NPOINTS     : 4096
#NCOLUMNS    : 1
#XUNITS      : eV
#YUNITS      : counts
#DATATYPE    : Y
#XPERCHAN    : 9.99778
#OFFSET      : 1.69135
#BEAMKV      : 20
#SIGNALTYPE  : EDS
#ELEVANGLE   : 35
#AZIMANGLE   : 0
#LIVETIME    : 240.202
#REALTIME    : 258.856
#PROBECUR    : 1.22574
#TAUWIND     : 0
#TDEADLYR    : 0
#TACTLYR     : 0.045
#TALWIND     : 0.025
#CHOFFSET    : 0.0
#XLABEL      : Energy (eV)
#YLABEL      : Counts
#XPOSITION   : 5.19283
#YPOSITION   : 5.07868
#ZPOSITION   : 34.06144
#EDSDET      : SD
##SPECIMEN   : GM IIIB K411[2][all]
##D2STDCMP   : K411,(O:42.3664),(Mg:8.8466),(Si:25.3818),(Ca:11.0563),(Fe:11.2088),5.0
##DET_HASH   : 12273538-fd48-a23f-0a19-f1e6fa85caef
##CALIB_HASH : 6abaa72c-aa41-8738-0be9-f592914732f3
##WORKING    : 15.0 mm
##DET_NAME   : EDAX All
##DET_MODE   : MediumLE
#SPECTRUM    :
25,
217,
7065,
6952,
56819,
12098,
3062,
3621,
4704,
74809,
4675,
5601,
73873,
34596,
3833,
3149,
3875,
3246,
3187,
3236,
3092,
3202,
2987,
2937,
2917,
3495,
34246,
12568,
3924,
6949,
2270,
2006,
2184,
2011,
1880,
1929,
1834,
1721,
1738,
1752,
1522,
1463,
1708,
1451,
1438,
6972,
19358,
1421,
1144,
1257,
3310,
2151,
973,
1056,
1008,
922,
930,
905,
881,
814,
823,
751,
701,
704,
692,
702,
642,
625,
674,
613,
552,
556,
522,
529,
532,
489,
494,
460,
449,
376,
384,
360,
387,
350,
289,
339,
320,
309,
270,
310,
254,
226,
224,
214,
212,
223,
199,
187,
175,
171,
160,
160,
118,
150,
119,
103,
107,
116,
92,
101,
86,
72,
79,
69,
63,
68,
60,
56,
49,
64,
42,
36,
41,
39,
25,
36,
38,
30,
21,
18,
10,
14,
20,
11,
15,
12,
8,
9,
5,
5,
1,
3,
1,
2,
0,
1,
0,
0,
0,
0,
0,
1,
0,
1,
0,
0,
0,
0,
0,
0,
0,
0,
0,
0,
1,
0,
1,
0,
0,
0,
0,
0,
0,
0,
0,
0,
0,
0,
0,
0,
0,
0,
0,
0,
0,
0,
0,
0,
0,
0,
0,
0,
0,
0,
0,
0,
0,
0,
0,
0,
0,
0,
0,
0,
0,
0,
0,
0,
0,
0,
0,
0,
0,
0,
0,
0,
0,
0,
0,
0,
0,
0,
0,
0,
0,
0,
0,
0,
0,
0,
0,
0,
0,
0,
0,
0,
0,
0,
0,
0,
0,
0,
0,
0,
0,
0,
0,
0,
0,
0,
0,
0,
0,
0,
0,
0,
0,
0,
0,
0,
0,
0,
0,
0,
0,
0,
0,
0,
0,
0,
0,
0,
0,
0,
0,
0,
0,
0,
0,
0,
0,
0,
0,
0,
0,
0,
0,
0,
0,
0,
0,
0,
0,
0,
#ENDOFDATA   :