Folder: spex_quant/N132962/Quantification/20 keV/MMM1 (part 7)

File: SPI MM1 Dolomite[6][4].msa
#FORMAT      : EMSA/MAS Spectral Data File
#VERSION     : 1.0
#TITLE       : SPI MM1dup Dolomite[6][all]
#DATE        : 12-MAR-2025
#TIME        : 15:51
#OWNER       : Unknown
#NPOINTS     : 4096
#NCOLUMNS    : 1
#XUNITS      : eV
#YUNITS      : counts
#DATATYPE    : Y
#XPERCHAN    : 9.99778
#OFFSET      : 1.69135
#BEAMKV      : 20
#SIGNALTYPE  : EDS
#ELEVANGLE   : 35
#AZIMANGLE   : 0
#LIVETIME    : 239.964
#REALTIME    : 250.855
#PROBECUR    : 1.02695
#TAUWIND     : 0
#TDEADLYR    : 0
#TACTLYR     : 0.045
#TALWIND     : 0.025
#CHOFFSET    : 0.0
#XLABEL      : Energy (eV)
#YLABEL      : Counts
#XPOSITION   : -0.11199
#YPOSITION   : 2.0541
#ZPOSITION   : 31.03608
#EDSDET      : SD
##SPECIMEN   : SPI MM1dup Dolomite[6][all]
##DET_HASH   : 12273538-fd48-a23f-0a19-f1e6fa85caef
##CALIB_HASH : 6abaa72c-aa41-8738-0be9-f592914732f3
##WORKING    : 15.0 mm
##DET_NAME   : EDAX All
##DET_MODE   : MediumLE
#SPECTRUM    :
36,
211,
27101,
3701,
35930,
1680,
2076,
2488,
3509,
87603,
2946,
3052,
3298,
3485,
3900,
2810,
2913,
2828,
2639,
2481,
2460,
2349,
2277,
2218,
2035,
2497,
55435,
18988,
3958,
9507,
1495,
1354,
1282,
1305,
1235,
1223,
1221,
1116,
1056,
1050,
1011,
1072,
955,
922,
949,
952,
1021,
788,
819,
705,
762,
704,
711,
735,
649,
564,
657,
523,
533,
529,
549,
453,
492,
495,
437,
409,
420,
400,
392,
342,
358,
328,
367,
316,
314,
290,
300,
290,
303,
243,
254,
241,
258,
248,
207,
171,
199,
178,
208,
186,
155,
134,
150,
129,
115,
127,
140,
122,
116,
120,
83,
90,
84,
63,
79,
89,
68,
59,
47,
66,
51,
52,
43,
45,
36,
44,
35,
35,
36,
30,
25,
25,
27,
26,
18,
22,
15,
12,
15,
11,
11,
10,
6,
9,
7,
7,
5,
2,
1,
1,
1,
1,
0,
0,
1,
0,
2,
0,
0,
0,
0,
0,
0,
0,
0,
0,
0,
0,
0,
0,
1,
0,
0,
0,
0,
0,
0,
0,
0,
0,
1,
0,
0,
0,
0,
0,
0,
0,
0,
0,
0,
0,
0,
0,
0,
0,
0,
0,
0,
0,
0,
0,
0,
0,
0,
0,
0,
0,
0,
0,
0,
0,
0,
0,
0,
0,
0,
0,
0,
0,
0,
0,
0,
0,
0,
0,
0,
0,
0,
0,
0,
0,
0,
0,
0,
0,
0,
0,
0,
0,
0,
0,
0,
0,
0,
0,
0,
0,
0,
0,
0,
0,
0,
0,
0,
0,
0,
0,
0,
0,
0,
0,
0,
0,
0,
0,
0,
0,
0,
0,
0,
0,
0,
0,
0,
0,
0,
0,
0,
0,
0,
0,
0,
0,
0,
0,
0,
0,
0,
0,
0,
0,
0,
0,
0,
0,
0,
0,
0,
0,
0,
0,
0,
0,
#ENDOFDATA   :

File: SPI MM1 Fluorapatite[0][4].msa
#FORMAT      : EMSA/MAS Spectral Data File
#VERSION     : 1.0
#TITLE       : SPI MM1 Fluorapatite[0][all]
#DATE        : 11-MAR-2025
#TIME        : 14:36
#OWNER       : Unknown
#NPOINTS     : 4096
#NCOLUMNS    : 1
#XUNITS      : eV
#YUNITS      : counts
#DATATYPE    : Y
#XPERCHAN    : 9.99778
#OFFSET      : 1.69135
#BEAMKV      : 20
#SIGNALTYPE  : EDS
#ELEVANGLE   : 35
#AZIMANGLE   : 0
#LIVETIME    : 239.887
#REALTIME    : 255.655
#PROBECUR    : 1.02809
#TAUWIND     : 0
#TDEADLYR    : 0
#TACTLYR     : 0.045
#TALWIND     : 0.025
#CHOFFSET    : 0.0
#XLABEL      : Energy (eV)
#YLABEL      : Counts
#XPOSITION   : -2.61176
#YPOSITION   : 1.88828
#ZPOSITION   : 30.9284
#EDSDET      : SD
##SPECIMEN   : SPI MM1 Fluorapatite[0][all]
##D2STDCMP   : Fluorapatite,(O:35.868),(F:3.5492),(P:23.146),(Ca:37.4368)
##DET_HASH   : 12273538-fd48-a23f-0a19-f1e6fa85caef
##CALIB_HASH : 6abaa72c-aa41-8738-0be9-f592914732f3
##WORKING    : 15.0 mm
##DET_NAME   : EDAX All
##DET_MODE   : MediumLE
#SPECTRUM    :
28,
242,
17925,
3129,
21103,
6397,
2771,
3479,
3833,
4280,
4726,
5043,
5311,
7612,
63797,
19155,
4189,
3619,
3459,
3121,
3120,
2991,
3003,
2926,
2710,
3650,
98907,
32950,
6332,
16545,
1906,
1736,
1697,
1779,
1770,
1742,
1709,
1607,
1581,
1437,
1479,
1621,
1398,
1342,
1250,
1193,
1260,
1122,
1113,
1070,
1002,
999,
1024,
1131,
903,
928,
829,
812,
781,
724,
767,
694,
687,
705,
627,
628,
641,
619,
565,
534,
551,
544,
492,
489,
488,
443,
444,
398,
386,
391,
394,
358,
365,
349,
313,
289,
303,
308,
286,
256,
250,
240,
230,
199,
188,
199,
169,
173,
195,
151,
144,
173,
153,
129,
129,
112,
111,
81,
79,
111,
92,
85,
84,
76,
74,
58,
60,
54,
46,
63,
42,
44,
45,
48,
26,
29,
22,
33,
22,
22,
21,
14,
17,
10,
19,
7,
10,
8,
10,
5,
3,
3,
1,
1,
0,
1,
0,
0,
1,
2,
2,
1,
0,
1,
0,
0,
0,
0,
0,
0,
0,
0,
0,
0,
0,
0,
0,
0,
0,
0,
0,
0,
0,
0,
0,
0,
0,
0,
0,
0,
0,
0,
0,
0,
1,
0,
0,
0,
0,
0,
0,
0,
0,
0,
0,
0,
0,
0,
0,
0,
0,
0,
0,
0,
0,
0,
0,
0,
0,
0,
0,
0,
0,
0,
0,
0,
0,
0,
0,
0,
0,
0,
0,
0,
0,
0,
0,
0,
0,
0,
0,
0,
0,
0,
0,
0,
0,
0,
0,
0,
0,
0,
0,
0,
0,
0,
0,
0,
0,
0,
0,
0,
0,
0,
0,
0,
0,
0,
0,
0,
0,
0,
0,
0,
0,
0,
0,
0,
0,
0,
0,
0,
0,
0,
0,
0,
0,
0,
0,
0,
0,
0,
0,
0,
0,
0,
0,
0,
0,
0,
0,
0,
0,
0,
#ENDOFDATA   :

File: SPI MM1 Fluorapatite[3][4].msa
#FORMAT      : EMSA/MAS Spectral Data File
#VERSION     : 1.0
#TITLE       : SPI MM1 Fluorapatite[3][all]
#DATE        : 11-MAR-2025
#TIME        : 14:39
#OWNER       : Unknown
#NPOINTS     : 4096
#NCOLUMNS    : 1
#XUNITS      : eV
#YUNITS      : counts
#DATATYPE    : Y
#XPERCHAN    : 9.99778
#OFFSET      : 1.69135
#BEAMKV      : 20
#SIGNALTYPE  : EDS
#ELEVANGLE   : 35
#AZIMANGLE   : 0
#LIVETIME    : 239.891
#REALTIME    : 255.658
#PROBECUR    : 1.02809
#TAUWIND     : 0
#TDEADLYR    : 0
#TACTLYR     : 0.045
#TALWIND     : 0.025
#CHOFFSET    : 0.0
#XLABEL      : Energy (eV)
#YLABEL      : Counts
#XPOSITION   : -2.64905
#YPOSITION   : 1.86629
#ZPOSITION   : 30.9284
#EDSDET      : SD
##SPECIMEN   : SPI MM1 Fluorapatite[3][all]
##D2STDCMP   : Fluorapatite,(O:35.868),(F:3.5492),(P:23.146),(Ca:37.4368)
##DET_HASH   : 12273538-fd48-a23f-0a19-f1e6fa85caef
##CALIB_HASH : 6abaa72c-aa41-8738-0be9-f592914732f3
##WORKING    : 15.0 mm
##DET_NAME   : EDAX All
##DET_MODE   : MediumLE
#SPECTRUM    :
28,
277,
18371,
3152,
21029,
6369,
2799,
3537,
3784,
4173,
4732,
5006,
5498,
7621,
63574,
18847,
4163,
3637,
3323,
3145,
3059,
2970,
2998,
2836,
2666,
3587,
98614,
33553,
6362,
16445,
1845,
1689,
1683,
1804,
1740,
1761,
1720,
1591,
1578,
1442,
1527,
1611,
1378,
1283,
1201,
1223,
1227,
1099,
1044,
996,
1028,
1039,
1003,
1123,
912,
897,
867,
799,
798,
775,
719,
715,
676,
671,
614,
640,
575,
576,
625,
572,
544,
515,
462,
429,
441,
462,
474,
450,
403,
392,
391,
355,
368,
342,
322,
301,
294,
264,
290,
263,
225,
230,
223,
245,
218,
201,
171,
184,
142,
149,
148,
150,
148,
124,
121,
109,
110,
98,
103,
86,
74,
77,
69,
71,
64,
60,
69,
64,
58,
52,
41,
43,
31,
32,
30,
26,
29,
23,
22,
27,
25,
6,
14,
14,
7,
13,
7,
6,
5,
2,
4,
0,
0,
0,
0,
1,
0,
1,
0,
0,
0,
0,
0,
0,
0,
0,
1,
1,
0,
0,
0,
0,
0,
0,
0,
0,
0,
0,
0,
0,
0,
0,
0,
0,
0,
0,
0,
0,
0,
0,
0,
0,
0,
0,
0,
0,
0,
0,
0,
0,
0,
0,
0,
0,
0,
0,
0,
0,
0,
0,
0,
0,
0,
0,
0,
0,
0,
0,
0,
0,
0,
0,
0,
0,
0,
0,
0,
0,
0,
0,
0,
0,
0,
0,
0,
0,
0,
0,
0,
0,
0,
0,
0,
0,
0,
0,
0,
0,
0,
0,
0,
0,
0,
0,
0,
0,
0,
0,
0,
0,
0,
0,
0,
0,
0,
0,
0,
0,
0,
0,
0,
0,
0,
0,
0,
0,
0,
0,
0,
0,
0,
0,
0,
0,
0,
0,
0,
0,
0,
0,
0,
0,
0,
0,
0,
0,
0,
0,
0,
0,
0,
0,
0,
0,
#ENDOFDATA   :

File: SPI MM1 Fluorapatite[7][4].msa
#FORMAT      : EMSA/MAS Spectral Data File
#VERSION     : 1.0
#TITLE       : SPI MM1 Fluorapatite[7][all]
#DATE        : 11-MAR-2025
#TIME        : 14:44
#OWNER       : Unknown
#NPOINTS     : 4096
#NCOLUMNS    : 1
#XUNITS      : eV
#YUNITS      : counts
#DATATYPE    : Y
#XPERCHAN    : 9.99778
#OFFSET      : 1.69135
#BEAMKV      : 20
#SIGNALTYPE  : EDS
#ELEVANGLE   : 35
#AZIMANGLE   : 0
#LIVETIME    : 239.875
#REALTIME    : 255.652
#PROBECUR    : 1.02809
#TAUWIND     : 0
#TDEADLYR    : 0
#TACTLYR     : 0.045
#TALWIND     : 0.025
#CHOFFSET    : 0.0
#XLABEL      : Energy (eV)
#YLABEL      : Counts
#XPOSITION   : -2.66226
#YPOSITION   : 1.85912
#ZPOSITION   : 30.9284
#EDSDET      : SD
##SPECIMEN   : SPI MM1 Fluorapatite[7][all]
##D2STDCMP   : Fluorapatite,(O:35.868),(F:3.5492),(P:23.146),(Ca:37.4368)
##DET_HASH   : 12273538-fd48-a23f-0a19-f1e6fa85caef
##CALIB_HASH : 6abaa72c-aa41-8738-0be9-f592914732f3
##WORKING    : 15.0 mm
##DET_NAME   : EDAX All
##DET_MODE   : MediumLE
#SPECTRUM    :
26,
264,
17926,
3022,
20938,
6373,
2742,
3328,
3773,
4287,
4769,
5102,
5627,
7447,
63627,
18956,
4304,
3626,
3319,
3081,
3053,
3013,
3049,
2997,
2702,
3647,
99031,
32979,
6527,
16312,
1958,
1720,
1660,
1694,
1678,
1725,
1687,
1710,
1697,
1443,
1469,
1638,
1430,
1326,
1272,
1236,
1265,
1130,
1033,
1044,
1087,
1002,
1015,
987,
877,
863,
802,
842,
796,
747,
730,
679,
715,
621,
643,
638,
606,
611,
537,
548,
542,
517,
530,
476,
467,
463,
448,
437,
387,
340,
399,
360,
339,
328,
300,
300,
292,
261,
272,
249,
250,
243,
245,
211,
215,
212,
160,
178,
153,
158,
164,
160,
147,
128,
106,
125,
123,
103,
94,
83,
78,
79,
69,
85,
64,
73,
60,
57,
55,
33,
49,
38,
30,
27,
33,
23,
22,
30,
27,
13,
12,
23,
21,
12,
14,
13,
10,
13,
8,
3,
1,
4,
1,
2,
0,
1,
0,
0,
0,
0,
0,
0,
0,
0,
0,
0,
0,
0,
0,
0,
0,
0,
0,
0,
0,
0,
0,
0,
0,
0,
0,
0,
0,
0,
0,
0,
0,
0,
0,
0,
0,
0,
0,
0,
0,
0,
1,
0,
0,
0,
0,
0,
0,
0,
0,
0,
0,
0,
0,
0,
0,
0,
0,
0,
0,
0,
0,
0,
0,
0,
0,
0,
0,
0,
0,
0,
0,
0,
0,
0,
0,
0,
0,
0,
0,
0,
0,
0,
0,
0,
0,
0,
0,
0,
0,
0,
0,
0,
0,
0,
0,
0,
0,
0,
0,
0,
0,
0,
0,
0,
0,
0,
0,
0,
0,
0,
0,
0,
0,
0,
0,
0,
0,
0,
0,
0,
0,
0,
0,
0,
0,
0,
0,
0,
0,
0,
0,
0,
0,
0,
0,
0,
0,
0,
0,
0,
0,
0,
0,
0,
0,
0,
0,
0,
#ENDOFDATA   :

File: SPI MM1 Galena[1][4].msa
#FORMAT      : EMSA/MAS Spectral Data File
#VERSION     : 1.0
#TITLE       : SPI MM1dup Galena[1][all]
#DATE        : 12-MAR-2025
#TIME        : 15:55
#OWNER       : Unknown
#NPOINTS     : 4096
#NCOLUMNS    : 1
#XUNITS      : eV
#YUNITS      : counts
#DATATYPE    : Y
#XPERCHAN    : 9.99778
#OFFSET      : 1.69135
#BEAMKV      : 20
#SIGNALTYPE  : EDS
#ELEVANGLE   : 35
#AZIMANGLE   : 0
#LIVETIME    : 239.848
#REALTIME    : 269.104
#PROBECUR    : 1.02695
#TAUWIND     : 0
#TDEADLYR    : 0
#TACTLYR     : 0.045
#TALWIND     : 0.025
#CHOFFSET    : 0.0
#XLABEL      : Energy (eV)
#YLABEL      : Counts
#XPOSITION   : -5.59158
#YPOSITION   : 1.99488
#ZPOSITION   : 31.03608
#EDSDET      : SD
##SPECIMEN   : SPI MM1dup Galena[1][all]
##DET_HASH   : 12273538-fd48-a23f-0a19-f1e6fa85caef
##CALIB_HASH : 6abaa72c-aa41-8738-0be9-f592914732f3
##WORKING    : 15.0 mm
##DET_NAME   : EDAX All
##DET_MODE   : MediumLE
#SPECTRUM    :
29,
1647,
17754,
4468,
10026,
9727,
7893,
8403,
8753,
9803,
10568,
11152,
11803,
24782,
11448,
11974,
53939,
224454,
34914,
12724,
5237,
5769,
7477,
5802,
5285,
5606,
5385,
5358,
5165,
5297,
5281,
5415,
5215,
5481,
5835,
5221,
5107,
5000,
4922,
5000,
4850,
4791,
4704,
4567,
4409,
4580,
4834,
4392,
4216,
4169,
4073,
3917,
3965,
4093,
3833,
3627,
3650,
3501,
3389,
3349,
3284,
3147,
3034,
2990,
3029,
3320,
3363,
2663,
2703,
2550,
2523,
2569,
2495,
2355,
3745,
15161,
8201,
2281,
1969,
1984,
1920,
1937,
1758,
1717,
1716,
1547,
1640,
1670,
1648,
2493,
6839,
2804,
1603,
1535,
1249,
1132,
1052,
1026,
973,
945,
870,
860,
825,
794,
732,
1145,
966,
737,
770,
665,
550,
542,
511,
537,
473,
435,
402,
392,
389,
356,
331,
312,
273,
293,
265,
237,
221,
202,
169,
209,
142,
164,
143,
149,
110,
99,
81,
74,
61,
50,
43,
25,
18,
6,
9,
10,
6,
9,
3,
4,
5,
6,
8,
4,
3,
5,
6,
5,
2,
3,
0,
2,
3,
4,
6,
1,
4,
1,
2,
3,
4,
4,
0,
2,
1,
3,
2,
1,
2,
1,
3,
2,
2,
3,
4,
3,
2,
0,
4,
1,
1,
0,
0,
2,
1,
0,
2,
0,
0,
0,
0,
1,
0,
1,
1,
2,
0,
0,
0,
0,
1,
0,
0,
0,
0,
0,
2,
0,
0,
1,
0,
0,
0,
0,
0,
0,
0,
0,
0,
0,
0,
0,
0,
1,
0,
0,
0,
0,
0,
0,
0,
0,
0,
0,
0,
0,
0,
0,
0,
0,
0,
0,
0,
0,
0,
0,
0,
0,
0,
0,
0,
0,
0,
0,
0,
0,
0,
0,
0,
0,
0,
0,
0,
0,
0,
0,
0,
0,
0,
0,
0,
0,
0,
0,
0,
0,
0,
0,
0,
0,
0,
0,
0,
0,
#ENDOFDATA   :

File: SPI MM1 Hematite[0][4].msa
#FORMAT      : EMSA/MAS Spectral Data File
#VERSION     : 1.0
#TITLE       : SPI MM1dup Hematite[0][all]
#DATE        : 12-MAR-2025
#TIME        : 16:46
#OWNER       : Unknown
#NPOINTS     : 4096
#NCOLUMNS    : 1
#XUNITS      : eV
#YUNITS      : counts
#DATATYPE    : Y
#XPERCHAN    : 9.99778
#OFFSET      : 1.69135
#BEAMKV      : 20
#SIGNALTYPE  : EDS
#ELEVANGLE   : 35
#AZIMANGLE   : 0
#LIVETIME    : 239.833
#REALTIME    : 256.681
#PROBECUR    : 1.026781
#TAUWIND     : 0
#TDEADLYR    : 0
#TACTLYR     : 0.045
#TALWIND     : 0.025
#CHOFFSET    : 0.0
#XLABEL      : Energy (eV)
#YLABEL      : Counts
#XPOSITION   : 3.58633
#YPOSITION   : 4.19776
#ZPOSITION   : 31.03609
#EDSDET      : SD
##SPECIMEN   : SPI MM1dup Hematite[0][all]
##D2STDCMP   : Hematite,(O:30.0574),(Fe:69.9426),5.0
##DET_HASH   : 12273538-fd48-a23f-0a19-f1e6fa85caef
##CALIB_HASH : 6abaa72c-aa41-8738-0be9-f592914732f3
##WORKING    : 15.0 mm
##DET_NAME   : EDAX All
##DET_MODE   : MediumLE
#SPECTRUM    :
25,
265,
11802,
9846,
70395,
54132,
2298,
2423,
2767,
3368,
3728,
4173,
4725,
4795,
4277,
4386,
4301,
4214,
4210,
4189,
4076,
3907,
3887,
3788,
3644,
3447,
3260,
3325,
3141,
2983,
2849,
2917,
2745,
3198,
2628,
2527,
2356,
2413,
2341,
2244,
2173,
2116,
1969,
1977,
2326,
34439,
105924,
2836,
1784,
2348,
13807,
7876,
1203,
1233,
1218,
1127,
1149,
1053,
1010,
1063,
1058,
953,
956,
963,
932,
888,
841,
836,
828,
767,
795,
709,
705,
740,
639,
656,
601,
573,
614,
586,
564,
537,
537,
521,
463,
479,
480,
425,
430,
393,
372,
415,
397,
333,
332,
335,
320,
281,
258,
226,
235,
251,
211,
183,
188,
189,
170,
178,
146,
130,
131,
134,
143,
118,
104,
116,
97,
87,
74,
75,
74,
57,
58,
62,
67,
47,
60,
41,
33,
29,
35,
28,
19,
23,
21,
11,
14,
17,
16,
7,
6,
5,
2,
1,
1,
0,
0,
0,
0,
2,
1,
2,
1,
1,
0,
1,
1,
0,
2,
0,
1,
0,
2,
0,
0,
0,
0,
0,
1,
0,
0,
0,
0,
0,
0,
0,
0,
0,
0,
0,
0,
0,
0,
0,
0,
0,
0,
0,
0,
0,
0,
0,
0,
0,
0,
0,
0,
0,
0,
0,
0,
0,
0,
0,
0,
0,
0,
0,
0,
0,
0,
0,
0,
0,
0,
0,
0,
0,
0,
0,
0,
0,
0,
0,
0,
0,
0,
0,
0,
0,
0,
0,
0,
0,
0,
0,
0,
0,
0,
0,
0,
0,
0,
0,
0,
0,
0,
0,
0,
0,
0,
0,
0,
0,
0,
0,
0,
0,
0,
0,
0,
0,
0,
0,
0,
0,
0,
0,
0,
0,
0,
0,
0,
0,
0,
0,
0,
0,
0,
0,
0,
0,
0,
0,
0,
0,
0,
0,
0,
0,
0,
0,
0,
0,
#ENDOFDATA   :

File: SPI MM1 Hematite[2][4].msa
#FORMAT      : EMSA/MAS Spectral Data File
#VERSION     : 1.0
#TITLE       : SPI MM1dup Hematite[2][all]
#DATE        : 12-MAR-2025
#TIME        : 16:48
#OWNER       : Unknown
#NPOINTS     : 4096
#NCOLUMNS    : 1
#XUNITS      : eV
#YUNITS      : counts
#DATATYPE    : Y
#XPERCHAN    : 9.99778
#OFFSET      : 1.69135
#BEAMKV      : 20
#SIGNALTYPE  : EDS
#ELEVANGLE   : 35
#AZIMANGLE   : 0
#LIVETIME    : 239.821
#REALTIME    : 256.682
#PROBECUR    : 1.026781
#TAUWIND     : 0
#TDEADLYR    : 0
#TACTLYR     : 0.045
#TALWIND     : 0.025
#CHOFFSET    : 0.0
#XLABEL      : Energy (eV)
#YLABEL      : Counts
#XPOSITION   : 3.57158
#YPOSITION   : 4.1647
#ZPOSITION   : 31.03608
#EDSDET      : SD
##SPECIMEN   : SPI MM1dup Hematite[2][all]
##D2STDCMP   : Hematite,(O:30.0574),(Fe:69.9426),5.0
##DET_HASH   : 12273538-fd48-a23f-0a19-f1e6fa85caef
##CALIB_HASH : 6abaa72c-aa41-8738-0be9-f592914732f3
##WORKING    : 15.0 mm
##DET_NAME   : EDAX All
##DET_MODE   : MediumLE
#SPECTRUM    :
19,
291,
11260,
9843,
70801,
54844,
2225,
2346,
2815,
3272,
3763,
4148,
4614,
4642,
4368,
4330,
4355,
4142,
4242,
4281,
4126,
4011,
3881,
3696,
3543,
3459,
3279,
3249,
3109,
2959,
2934,
2863,
2772,
3159,
2667,
2555,
2382,
2438,
2290,
2311,
2195,
2018,
2007,
2048,
2341,
34570,
105679,
2922,
1777,
2281,
13893,
7775,
1293,
1249,
1252,
1078,
1165,
1072,
1048,
1047,
1051,
999,
972,
936,
861,
915,
842,
845,
809,
785,
734,
733,
731,
676,
675,
658,
598,
589,
599,
592,
591,
506,
491,
501,
476,
442,
416,
404,
430,
383,
358,
465,
417,
339,
305,
292,
318,
268,
235,
277,
224,
201,
227,
238,
200,
192,
167,
156,
159,
145,
141,
125,
115,
109,
88,
82,
116,
99,
83,
80,
56,
73,
80,
60,
55,
54,
47,
39,
39,
49,
26,
31,
27,
24,
13,
16,
18,
14,
14,
5,
3,
3,
3,
2,
2,
3,
2,
2,
1,
1,
2,
0,
0,
0,
0,
1,
1,
0,
1,
0,
1,
0,
0,
0,
0,
0,
0,
0,
0,
0,
0,
0,
0,
0,
0,
0,
1,
0,
1,
0,
0,
0,
0,
1,
0,
0,
0,
0,
0,
0,
0,
0,
0,
0,
0,
0,
0,
0,
0,
0,
0,
0,
0,
0,
0,
0,
0,
0,
0,
0,
0,
0,
0,
0,
0,
0,
0,
0,
0,
0,
0,
0,
0,
0,
0,
0,
0,
0,
0,
0,
0,
0,
0,
0,
0,
0,
0,
0,
0,
0,
0,
0,
0,
0,
0,
0,
0,
0,
0,
0,
0,
0,
0,
0,
0,
0,
0,
0,
0,
0,
0,
0,
0,
0,
0,
0,
0,
0,
0,
0,
0,
0,
0,
0,
0,
0,
0,
0,
0,
0,
0,
0,
0,
0,
0,
0,
0,
0,
0,
0,
0,
0,
0,
0,
#ENDOFDATA   :

File: SPI MM1 Jadeite[2][4].msa
#FORMAT      : EMSA/MAS Spectral Data File
#VERSION     : 1.0
#TITLE       : SPI MM1dup Jadeite[2][all]
#DATE        : 12-MAR-2025
#TIME        : 16:31
#OWNER       : Unknown
#NPOINTS     : 4096
#NCOLUMNS    : 1
#XUNITS      : eV
#YUNITS      : counts
#DATATYPE    : Y
#XPERCHAN    : 9.99778
#OFFSET      : 1.69135
#BEAMKV      : 20
#SIGNALTYPE  : EDS
#ELEVANGLE   : 35
#AZIMANGLE   : 0
#LIVETIME    : 239.767
#REALTIME    : 255.531
#PROBECUR    : 1.02709
#TAUWIND     : 0
#TDEADLYR    : 0
#TACTLYR     : 0.045
#TALWIND     : 0.025
#CHOFFSET    : 0.0
#XLABEL      : Energy (eV)
#YLABEL      : Counts
#XPOSITION   : 0.96276
#YPOSITION   : 4.37657
#ZPOSITION   : 31.03608
#EDSDET      : SD
##SPECIMEN   : SPI MM1dup Jadeite[2][all]
##D2STDCMP   : Jadeite,(O:47.4904),(Na:11.3733),(Al:13.348),(Si:27.7883),5.0
##DET_HASH   : 12273538-fd48-a23f-0a19-f1e6fa85caef
##CALIB_HASH : 6abaa72c-aa41-8738-0be9-f592914732f3
##WORKING    : 15.0 mm
##DET_NAME   : EDAX All
##DET_MODE   : MediumLE
#SPECTRUM    :
19,
174,
7507,
6327,
65808,
2023,
2762,
17734,
6329,
4228,
10208,
39354,
60251,
28221,
2191,
2183,
2578,
2067,
2206,
2081,
2247,
2051,
2029,
2073,
1883,
1990,
2055,
1744,
1561,
1630,
1540,
1486,
1450,
1383,
1306,
1289,
1197,
1294,
1166,
1091,
1058,
979,
997,
937,
913,
914,
898,
847,
774,
762,
758,
716,
717,
714,
643,
622,
618,
607,
598,
602,
556,
505,
510,
529,
474,
420,
424,
438,
428,
373,
373,
352,
365,
352,
298,
297,
294,
286,
269,
268,
247,
268,
225,
220,
249,
187,
188,
199,
178,
164,
156,
159,
141,
138,
135,
127,
97,
99,
114,
93,
124,
94,
86,
93,
83,
78,
68,
64,
78,
59,
69,
49,
53,
43,
37,
36,
37,
35,
34,
37,
44,
19,
27,
20,
19,
22,
23,
10,
15,
7,
12,
9,
10,
13,
9,
7,
5,
6,
1,
5,
0,
1,
0,
0,
0,
0,
0,
0,
0,
0,
1,
0,
0,
0,
0,
0,
0,
0,
1,
0,
0,
0,
0,
0,
0,
0,
0,
0,
0,
0,
0,
1,
0,
0,
0,
0,
0,
0,
0,
0,
0,
0,
0,
0,
0,
0,
0,
0,
0,
0,
0,
0,
0,
0,
0,
0,
0,
0,
0,
0,
0,
0,
0,
0,
0,
0,
0,
0,
0,
0,
0,
0,
0,
0,
0,
0,
0,
0,
0,
0,
0,
0,
0,
0,
0,
0,
0,
0,
0,
0,
0,
0,
0,
0,
0,
0,
0,
0,
0,
0,
0,
0,
0,
0,
0,
0,
0,
0,
0,
0,
0,
0,
0,
0,
0,
0,
0,
0,
0,
0,
0,
0,
0,
0,
0,
0,
0,
0,
0,
0,
0,
0,
0,
0,
0,
0,
0,
0,
0,
0,
0,
0,
0,
0,
0,
0,
0,
0,
0,
0,
0,
0,
0,
0,
#ENDOFDATA   :

File: SPI MM1 Jadeite[4][4].msa
#FORMAT      : EMSA/MAS Spectral Data File
#VERSION     : 1.0
#TITLE       : SPI MM1dup Jadeite[4][all]
#DATE        : 12-MAR-2025
#TIME        : 16:33
#OWNER       : Unknown
#NPOINTS     : 4096
#NCOLUMNS    : 1
#XUNITS      : eV
#YUNITS      : counts
#DATATYPE    : Y
#XPERCHAN    : 9.99778
#OFFSET      : 1.69135
#BEAMKV      : 20
#SIGNALTYPE  : EDS
#ELEVANGLE   : 35
#AZIMANGLE   : 0
#LIVETIME    : 239.805
#REALTIME    : 255.589
#PROBECUR    : 1.02709
#TAUWIND     : 0
#TDEADLYR    : 0
#TACTLYR     : 0.045
#TALWIND     : 0.025
#CHOFFSET    : 0.0
#XLABEL      : Energy (eV)
#YLABEL      : Counts
#XPOSITION   : 1.00553
#YPOSITION   : 4.40574
#ZPOSITION   : 31.03608
#EDSDET      : SD
##SPECIMEN   : SPI MM1dup Jadeite[4][all]
##D2STDCMP   : Jadeite,(O:47.4904),(Na:11.3733),(Al:13.348),(Si:27.7883),5.0
##DET_HASH   : 12273538-fd48-a23f-0a19-f1e6fa85caef
##CALIB_HASH : 6abaa72c-aa41-8738-0be9-f592914732f3
##WORKING    : 15.0 mm
##DET_NAME   : EDAX All
##DET_MODE   : MediumLE
#SPECTRUM    :
28,
173,
7724,
6318,
66839,
1997,
2831,
18096,
6395,
3814,
10544,
39605,
60742,
28625,
2127,
2110,
2581,
2096,
2231,
2054,
2272,
2096,
1883,
2152,
1881,
2034,
1824,
1637,
1604,
1528,
1543,
1450,
1423,
1310,
1279,
1247,
1258,
1145,
1146,
1149,
1101,
992,
1057,
994,
926,
901,
1000,
823,
816,
767,
769,
698,
681,
677,
678,
613,
668,
613,
591,
582,
509,
517,
516,
456,
446,
445,
441,
418,
396,
405,
385,
363,
348,
366,
321,
333,
332,
276,
271,
239,
243,
268,
230,
234,
213,
190,
181,
169,
186,
170,
199,
152,
154,
135,
133,
122,
124,
129,
114,
90,
104,
119,
81,
84,
64,
70,
66,
59,
71,
59,
58,
43,
56,
45,
36,
30,
32,
34,
34,
28,
30,
24,
24,
24,
11,
21,
25,
18,
12,
14,
10,
11,
14,
8,
9,
3,
8,
2,
6,
2,
0,
1,
1,
0,
0,
0,
0,
0,
0,
0,
0,
0,
0,
0,
0,
0,
0,
0,
0,
0,
0,
0,
0,
0,
0,
0,
0,
0,
0,
0,
0,
0,
0,
0,
0,
0,
0,
0,
0,
0,
0,
0,
0,
0,
0,
0,
0,
0,
0,
0,
0,
0,
0,
0,
0,
0,
0,
0,
0,
0,
0,
0,
0,
0,
0,
0,
0,
0,
0,
0,
0,
0,
0,
0,
0,
0,
0,
0,
0,
0,
0,
0,
0,
0,
0,
0,
0,
0,
0,
0,
0,
0,
0,
0,
0,
0,
0,
0,
0,
0,
0,
0,
0,
0,
0,
0,
0,
0,
0,
0,
0,
0,
0,
0,
0,
0,
0,
0,
0,
0,
0,
0,
0,
0,
0,
0,
0,
0,
0,
0,
0,
0,
0,
0,
0,
0,
0,
0,
0,
0,
0,
0,
0,
0,
0,
0,
0,
0,
0,
0,
0,
0,
0,
0,
#ENDOFDATA   :

File: SPI MM1 Jadeite[6][4].msa
#FORMAT      : EMSA/MAS Spectral Data File
#VERSION     : 1.0
#TITLE       : SPI MM1dup Jadeite[6][all]
#DATE        : 12-MAR-2025
#TIME        : 16:36
#OWNER       : Unknown
#NPOINTS     : 4096
#NCOLUMNS    : 1
#XUNITS      : eV
#YUNITS      : counts
#DATATYPE    : Y
#XPERCHAN    : 9.99778
#OFFSET      : 1.69135
#BEAMKV      : 20
#SIGNALTYPE  : EDS
#ELEVANGLE   : 35
#AZIMANGLE   : 0
#LIVETIME    : 239.809
#REALTIME    : 255.589
#PROBECUR    : 1.02709
#TAUWIND     : 0
#TDEADLYR    : 0
#TACTLYR     : 0.045
#TALWIND     : 0.025
#CHOFFSET    : 0.0
#XLABEL      : Energy (eV)
#YLABEL      : Counts
#XPOSITION   : 0.98979
#YPOSITION   : 4.34036
#ZPOSITION   : 31.03608
#EDSDET      : SD
##SPECIMEN   : SPI MM1dup Jadeite[6][all]
##D2STDCMP   : Jadeite,(O:47.4904),(Na:11.3733),(Al:13.348),(Si:27.7883),5.0
##DET_HASH   : 12273538-fd48-a23f-0a19-f1e6fa85caef
##CALIB_HASH : 6abaa72c-aa41-8738-0be9-f592914732f3
##WORKING    : 15.0 mm
##DET_NAME   : EDAX All
##DET_MODE   : MediumLE
#SPECTRUM    :
20,
180,
7659,
6405,
66737,
2039,
2742,
17846,
6324,
3777,
10341,
39886,
60716,
28510,
2180,
2132,
2683,
2106,
2241,
2104,
2346,
2160,
2020,
2194,
1840,
1998,
1824,
1758,
1586,
1558,
1486,
1507,
1411,
1366,
1255,
1230,
1215,
1166,
1123,
1109,
1054,
1056,
1012,
988,
938,
914,
974,
828,
841,
757,
743,
729,
645,
666,
667,
636,
588,
532,
569,
602,
581,
523,
473,
436,
477,
454,
466,
468,
417,
389,
389,
375,
356,
339,
341,
321,
315,
290,
287,
261,
266,
245,
232,
229,
206,
230,
199,
185,
155,
195,
146,
152,
138,
150,
104,
136,
130,
113,
114,
95,
103,
90,
91,
89,
100,
77,
70,
55,
80,
83,
33,
62,
51,
59,
45,
38,
50,
41,
29,
41,
24,
29,
18,
15,
22,
22,
15,
9,
16,
10,
8,
7,
5,
9,
6,
6,
4,
6,
3,
1,
2,
1,
0,
0,
0,
0,
0,
0,
0,
0,
0,
0,
0,
1,
0,
0,
0,
0,
0,
0,
0,
0,
0,
0,
0,
0,
0,
0,
0,
0,
0,
0,
0,
0,
0,
0,
1,
0,
0,
0,
0,
0,
0,
0,
0,
0,
0,
0,
0,
0,
0,
0,
0,
0,
0,
0,
0,
0,
0,
0,
0,
0,
0,
0,
0,
0,
0,
0,
0,
0,
0,
0,
0,
0,
0,
0,
0,
0,
0,
0,
0,
0,
0,
0,
0,
0,
0,
0,
0,
0,
0,
0,
0,
0,
0,
0,
0,
0,
0,
0,
0,
0,
0,
0,
0,
0,
0,
0,
0,
0,
0,
0,
0,
0,
0,
0,
0,
0,
0,
0,
0,
0,
0,
0,
0,
0,
0,
0,
0,
0,
0,
0,
0,
0,
0,
0,
0,
0,
0,
0,
0,
0,
0,
0,
0,
0,
0,
0,
0,
0,
0,
0,
0,
0,
#ENDOFDATA   :

File: SPI MM1 Jadeite[7][4].msa
#FORMAT      : EMSA/MAS Spectral Data File
#VERSION     : 1.0
#TITLE       : SPI MM1dup Jadeite[7][all]
#DATE        : 12-MAR-2025
#TIME        : 16:37
#OWNER       : Unknown
#NPOINTS     : 4096
#NCOLUMNS    : 1
#XUNITS      : eV
#YUNITS      : counts
#DATATYPE    : Y
#XPERCHAN    : 9.99778
#OFFSET      : 1.69135
#BEAMKV      : 20
#SIGNALTYPE  : EDS
#ELEVANGLE   : 35
#AZIMANGLE   : 0
#LIVETIME    : 239.772
#REALTIME    : 255.531
#PROBECUR    : 1.02709
#TAUWIND     : 0
#TDEADLYR    : 0
#TACTLYR     : 0.045
#TALWIND     : 0.025
#CHOFFSET    : 0.0
#XLABEL      : Energy (eV)
#YLABEL      : Counts
#XPOSITION   : 0.9548
#YPOSITION   : 4.34766
#ZPOSITION   : 31.03608
#EDSDET      : SD
##SPECIMEN   : SPI MM1dup Jadeite[7][all]
##D2STDCMP   : Jadeite,(O:47.4904),(Na:11.3733),(Al:13.348),(Si:27.7883),5.0
##DET_HASH   : 12273538-fd48-a23f-0a19-f1e6fa85caef
##CALIB_HASH : 6abaa72c-aa41-8738-0be9-f592914732f3
##WORKING    : 15.0 mm
##DET_NAME   : EDAX All
##DET_MODE   : MediumLE
#SPECTRUM    :
22,
169,
7741,
6112,
66127,
2025,
2898,
17625,
6140,
4364,
10445,
39423,
60291,
28564,
2275,
2139,
2608,
2071,
2227,
2030,
2201,
2115,
1959,
2200,
1853,
2064,
2066,
1761,
1626,
1655,
1530,
1432,
1393,
1407,
1317,
1312,
1165,
1271,
1160,
1119,
1116,
963,
973,
979,
1003,
910,
951,
822,
832,
802,
788,
736,
707,
728,
642,
656,
607,
611,
559,
549,
543,
494,
499,
470,
478,
399,
425,
425,
424,
397,
347,
358,
386,
311,
268,
314,
302,
265,
270,
259,
252,
280,
223,
247,
196,
214,
197,
182,
178,
166,
166,
137,
160,
157,
155,
142,
139,
110,
130,
101,
94,
101,
93,
79,
92,
83,
88,
72,
78,
75,
52,
45,
53,
69,
37,
46,
42,
27,
31,
32,
24,
24,
26,
21,
25,
19,
26,
16,
13,
11,
10,
16,
6,
7,
6,
6,
4,
6,
4,
1,
0,
2,
1,
0,
0,
0,
0,
0,
0,
0,
0,
0,
0,
1,
0,
0,
0,
0,
0,
0,
0,
0,
0,
0,
0,
0,
0,
0,
0,
0,
0,
0,
0,
0,
0,
0,
0,
1,
0,
0,
0,
0,
0,
0,
0,
0,
1,
0,
0,
0,
0,
0,
0,
0,
0,
0,
0,
0,
0,
0,
0,
0,
0,
0,
0,
0,
0,
0,
0,
0,
0,
0,
0,
0,
0,
0,
0,
0,
0,
0,
0,
0,
0,
0,
0,
0,
0,
0,
0,
0,
0,
0,
0,
0,
0,
0,
0,
0,
0,
0,
0,
0,
0,
0,
0,
0,
0,
0,
0,
0,
0,
0,
0,
0,
0,
0,
0,
0,
0,
0,
0,
0,
0,
0,
0,
0,
0,
0,
0,
0,
0,
0,
0,
0,
0,
0,
0,
0,
0,
0,
0,
0,
0,
0,
0,
0,
0,
0,
0,
0,
0,
0,
0,
0,
#ENDOFDATA   :