Folder: spex_quant/N132962/Quantification/20 keV/MMM1 (part 5)

File: SPI MM1 Chlorite[1][4].msa
#FORMAT      : EMSA/MAS Spectral Data File
#VERSION     : 1.0
#TITLE       : SPI MM1dup Chlorite[1][all]
#DATE        : 12-MAR-2025
#TIME        : 14:19
#OWNER       : Unknown
#NPOINTS     : 4096
#NCOLUMNS    : 1
#XUNITS      : eV
#YUNITS      : counts
#DATATYPE    : Y
#XPERCHAN    : 9.99778
#OFFSET      : 1.69135
#BEAMKV      : 20
#SIGNALTYPE  : EDS
#ELEVANGLE   : 35
#AZIMANGLE   : 0
#LIVETIME    : 239.762
#REALTIME    : 254.634
#PROBECUR    : 1.02867
#TAUWIND     : 0
#TDEADLYR    : 0
#TACTLYR     : 0.045
#TALWIND     : 0.025
#CHOFFSET    : 0.0
#XLABEL      : Energy (eV)
#YLABEL      : Counts
#XPOSITION   : 6.15716
#YPOSITION   : -0.3659
#ZPOSITION   : 31.03608
#EDSDET      : SD
##SPECIMEN   : SPI MM1dup Chlorite[1][all]
##DET_HASH   : 12273538-fd48-a23f-0a19-f1e6fa85caef
##CALIB_HASH : 6abaa72c-aa41-8738-0be9-f592914732f3
##WORKING    : 15.0 mm
##DET_NAME   : EDAX All
##DET_MODE   : MediumLE
#SPECTRUM    :
17,
176,
8714,
7503,
80851,
4395,
2749,
3234,
4821,
152302,
6403,
21995,
28382,
14349,
2265,
2126,
2521,
2097,
2222,
2144,
2097,
2086,
2018,
1981,
1894,
1909,
1745,
1716,
1656,
1576,
1426,
1455,
1436,
1314,
1276,
1258,
1248,
1129,
1874,
3224,
1065,
1075,
1264,
1125,
944,
1936,
4392,
853,
744,
811,
1133,
956,
669,
832,
691,
627,
609,
619,
571,
546,
500,
464,
450,
461,
434,
454,
422,
392,
399,
374,
368,
341,
323,
310,
316,
308,
297,
278,
283,
252,
268,
207,
236,
212,
203,
179,
192,
157,
191,
163,
170,
177,
142,
134,
128,
141,
125,
120,
100,
101,
96,
86,
82,
82,
84,
67,
66,
65,
59,
48,
58,
56,
41,
34,
34,
39,
27,
29,
38,
29,
29,
28,
30,
26,
21,
15,
23,
20,
7,
8,
8,
15,
9,
4,
13,
10,
6,
5,
3,
1,
1,
2,
1,
0,
0,
0,
0,
0,
0,
1,
0,
0,
0,
0,
0,
0,
0,
0,
0,
0,
0,
0,
0,
0,
0,
0,
0,
0,
0,
0,
0,
0,
0,
0,
0,
0,
0,
0,
0,
0,
0,
0,
0,
0,
0,
0,
0,
0,
0,
0,
0,
0,
0,
0,
0,
0,
0,
0,
0,
0,
0,
0,
0,
0,
0,
0,
0,
0,
0,
0,
0,
0,
0,
0,
0,
0,
0,
0,
0,
0,
0,
0,
0,
0,
0,
0,
0,
0,
0,
0,
0,
0,
0,
0,
0,
0,
0,
0,
0,
0,
0,
0,
0,
0,
0,
0,
0,
0,
0,
0,
0,
0,
0,
0,
0,
0,
0,
0,
0,
0,
0,
0,
0,
0,
0,
0,
0,
0,
0,
0,
0,
0,
0,
0,
0,
0,
0,
0,
0,
0,
0,
0,
0,
0,
0,
0,
0,
0,
0,
0,
0,
0,
0,
0,
#ENDOFDATA   :

File: SPI MM1 Chlorite[4][4].msa
#FORMAT      : EMSA/MAS Spectral Data File
#VERSION     : 1.0
#TITLE       : SPI MM1dup Chlorite[4][all]
#DATE        : 12-MAR-2025
#TIME        : 14:22
#OWNER       : Unknown
#NPOINTS     : 4096
#NCOLUMNS    : 1
#XUNITS      : eV
#YUNITS      : counts
#DATATYPE    : Y
#XPERCHAN    : 9.99778
#OFFSET      : 1.69135
#BEAMKV      : 20
#SIGNALTYPE  : EDS
#ELEVANGLE   : 35
#AZIMANGLE   : 0
#LIVETIME    : 239.83
#REALTIME    : 254.707
#PROBECUR    : 1.02867
#TAUWIND     : 0
#TDEADLYR    : 0
#TACTLYR     : 0.045
#TALWIND     : 0.025
#CHOFFSET    : 0.0
#XLABEL      : Energy (eV)
#YLABEL      : Counts
#XPOSITION   : 6.30705
#YPOSITION   : -0.18685
#ZPOSITION   : 31.03608
#EDSDET      : SD
##SPECIMEN   : SPI MM1dup Chlorite[4][all]
##DET_HASH   : 12273538-fd48-a23f-0a19-f1e6fa85caef
##CALIB_HASH : 6abaa72c-aa41-8738-0be9-f592914732f3
##WORKING    : 15.0 mm
##DET_NAME   : EDAX All
##DET_MODE   : MediumLE
#SPECTRUM    :
24,
203,
8542,
7621,
81215,
4334,
2648,
3097,
4821,
151929,
6432,
22356,
28424,
14109,
2150,
2101,
2439,
2149,
2391,
2129,
2046,
2104,
1977,
1962,
1878,
1853,
1721,
1644,
1652,
1560,
1515,
1454,
1369,
1386,
1263,
1298,
1156,
1114,
1787,
3226,
1038,
928,
1220,
1094,
904,
1986,
4269,
784,
730,
792,
1144,
914,
665,
850,
729,
578,
569,
550,
553,
558,
530,
480,
471,
438,
443,
465,
414,
393,
351,
386,
362,
349,
335,
326,
318,
316,
288,
245,
246,
256,
239,
248,
248,
192,
238,
193,
192,
181,
192,
156,
150,
150,
117,
137,
130,
112,
100,
114,
115,
109,
104,
83,
94,
92,
93,
80,
78,
55,
76,
57,
47,
43,
40,
32,
44,
48,
37,
36,
28,
26,
26,
29,
23,
29,
20,
18,
20,
16,
12,
14,
9,
8,
6,
11,
7,
3,
4,
5,
3,
4,
1,
1,
1,
0,
0,
0,
0,
0,
0,
0,
0,
0,
0,
0,
0,
0,
0,
0,
0,
0,
0,
1,
0,
0,
0,
0,
1,
0,
0,
1,
0,
0,
0,
0,
0,
0,
0,
0,
0,
0,
0,
0,
0,
0,
0,
0,
0,
0,
0,
0,
0,
0,
0,
0,
0,
0,
0,
0,
0,
0,
0,
0,
0,
0,
0,
0,
0,
0,
0,
0,
0,
0,
0,
0,
0,
0,
0,
0,
0,
0,
0,
0,
0,
0,
0,
0,
0,
0,
0,
0,
0,
0,
0,
0,
0,
0,
0,
0,
0,
0,
0,
0,
0,
0,
0,
0,
0,
0,
0,
0,
0,
0,
0,
0,
0,
0,
0,
0,
0,
0,
0,
0,
0,
0,
0,
0,
0,
0,
0,
0,
0,
0,
0,
0,
0,
0,
0,
0,
0,
0,
0,
0,
0,
0,
0,
0,
0,
0,
0,
0,
0,
0,
0,
0,
#ENDOFDATA   :

File: SPI MM1 Chlorite[6][4].msa
#FORMAT      : EMSA/MAS Spectral Data File
#VERSION     : 1.0
#TITLE       : SPI MM1dup Chlorite[6][all]
#DATE        : 12-MAR-2025
#TIME        : 14:25
#OWNER       : Unknown
#NPOINTS     : 4096
#NCOLUMNS    : 1
#XUNITS      : eV
#YUNITS      : counts
#DATATYPE    : Y
#XPERCHAN    : 9.99778
#OFFSET      : 1.69135
#BEAMKV      : 20
#SIGNALTYPE  : EDS
#ELEVANGLE   : 35
#AZIMANGLE   : 0
#LIVETIME    : 239.773
#REALTIME    : 254.573
#PROBECUR    : 1.02867
#TAUWIND     : 0
#TDEADLYR    : 0
#TACTLYR     : 0.045
#TALWIND     : 0.025
#CHOFFSET    : 0.0
#XLABEL      : Energy (eV)
#YLABEL      : Counts
#XPOSITION   : 6.52357
#YPOSITION   : 0.0255
#ZPOSITION   : 31.03608
#EDSDET      : SD
##SPECIMEN   : SPI MM1dup Chlorite[6][all]
##DET_HASH   : 12273538-fd48-a23f-0a19-f1e6fa85caef
##CALIB_HASH : 6abaa72c-aa41-8738-0be9-f592914732f3
##WORKING    : 15.0 mm
##DET_NAME   : EDAX All
##DET_MODE   : MediumLE
#SPECTRUM    :
19,
179,
8880,
7537,
80467,
4308,
2715,
3118,
4590,
150639,
6445,
22073,
28185,
14148,
2251,
2135,
2429,
2171,
2283,
2153,
2094,
2180,
2017,
1940,
1847,
1863,
1718,
1626,
1533,
1475,
1424,
1426,
1423,
1320,
1260,
1262,
1181,
1136,
1917,
3255,
1067,
946,
1217,
1080,
901,
1863,
4182,
849,
762,
790,
1135,
877,
660,
824,
688,
614,
584,
539,
571,
557,
518,
475,
488,
413,
421,
429,
421,
386,
372,
357,
378,
378,
303,
331,
326,
310,
291,
285,
298,
233,
249,
233,
209,
203,
226,
195,
179,
176,
157,
157,
140,
171,
159,
128,
150,
130,
124,
120,
102,
118,
78,
101,
104,
78,
95,
69,
79,
67,
60,
62,
68,
42,
47,
30,
37,
46,
45,
32,
30,
27,
26,
31,
15,
23,
28,
18,
24,
11,
14,
14,
8,
6,
14,
7,
11,
4,
2,
0,
4,
0,
1,
0,
1,
0,
0,
0,
0,
0,
0,
0,
0,
0,
0,
0,
0,
0,
0,
0,
0,
0,
0,
0,
0,
0,
0,
0,
0,
0,
0,
0,
0,
0,
0,
0,
0,
0,
0,
0,
0,
0,
0,
0,
0,
0,
0,
0,
0,
0,
0,
0,
0,
0,
0,
0,
0,
0,
0,
0,
0,
0,
0,
0,
0,
0,
0,
0,
0,
0,
0,
0,
0,
0,
0,
0,
0,
0,
0,
0,
0,
0,
0,
0,
0,
0,
0,
0,
0,
0,
0,
0,
0,
0,
0,
0,
0,
0,
0,
0,
0,
0,
0,
0,
0,
0,
0,
0,
0,
0,
0,
0,
0,
0,
0,
0,
0,
0,
0,
0,
0,
0,
0,
0,
0,
0,
0,
0,
0,
0,
0,
0,
0,
0,
0,
0,
0,
0,
0,
0,
0,
0,
0,
0,
0,
0,
0,
0,
0,
0,
0,
0,
0,
0,
0,
0,
#ENDOFDATA   :

File: SPI MM1 Chlorite[8][4].msa
#FORMAT      : EMSA/MAS Spectral Data File
#VERSION     : 1.0
#TITLE       : SPI MM1dup Chlorite[8][all]
#DATE        : 12-MAR-2025
#TIME        : 14:27
#OWNER       : Unknown
#NPOINTS     : 4096
#NCOLUMNS    : 1
#XUNITS      : eV
#YUNITS      : counts
#DATATYPE    : Y
#XPERCHAN    : 9.99778
#OFFSET      : 1.69135
#BEAMKV      : 20
#SIGNALTYPE  : EDS
#ELEVANGLE   : 35
#AZIMANGLE   : 0
#LIVETIME    : 239.789
#REALTIME    : 254.6387
#PROBECUR    : 1.02867
#TAUWIND     : 0
#TDEADLYR    : 0
#TACTLYR     : 0.045
#TALWIND     : 0.025
#CHOFFSET    : 0.0
#XLABEL      : Energy (eV)
#YLABEL      : Counts
#XPOSITION   : 6.65681
#YPOSITION   : 0.17123
#ZPOSITION   : 31.03608
#EDSDET      : SD
##SPECIMEN   : SPI MM1dup Chlorite[8][all]
##DET_HASH   : 12273538-fd48-a23f-0a19-f1e6fa85caef
##CALIB_HASH : 6abaa72c-aa41-8738-0be9-f592914732f3
##WORKING    : 15.0 mm
##DET_NAME   : EDAX All
##DET_MODE   : MediumLE
#SPECTRUM    :
28,
223,
8649,
7603,
80604,
3954,
2710,
3169,
4534,
151708,
6624,
22192,
28472,
14406,
2255,
2093,
2477,
2178,
2347,
2156,
2082,
2121,
2012,
1926,
1813,
1834,
1715,
1707,
1549,
1459,
1518,
1501,
1400,
1311,
1247,
1287,
1189,
1192,
1900,
3244,
1043,
976,
1220,
1247,
951,
1859,
4153,
814,
797,
785,
1127,
900,
671,
817,
713,
598,
585,
571,
540,
551,
509,
528,
468,
457,
469,
418,
397,
421,
397,
384,
356,
346,
328,
340,
314,
307,
261,
285,
283,
279,
281,
228,
244,
226,
202,
181,
201,
182,
159,
175,
152,
149,
145,
139,
117,
126,
100,
110,
110,
115,
85,
115,
91,
92,
72,
72,
88,
69,
53,
84,
55,
53,
47,
51,
40,
47,
37,
36,
23,
27,
24,
23,
30,
21,
18,
22,
19,
18,
15,
18,
13,
7,
8,
9,
10,
5,
1,
3,
1,
3,
3,
0,
0,
0,
0,
0,
0,
0,
1,
0,
0,
1,
0,
0,
0,
0,
0,
0,
0,
0,
0,
0,
0,
0,
0,
1,
0,
0,
0,
0,
0,
0,
0,
0,
0,
0,
0,
0,
0,
0,
0,
0,
0,
0,
0,
0,
0,
0,
0,
0,
0,
0,
0,
0,
0,
0,
0,
0,
0,
0,
0,
0,
0,
0,
0,
0,
0,
0,
0,
0,
0,
0,
0,
0,
0,
0,
0,
0,
0,
0,
0,
0,
0,
0,
0,
0,
0,
0,
0,
0,
0,
0,
0,
0,
0,
0,
0,
0,
0,
0,
0,
0,
0,
0,
0,
0,
0,
0,
0,
0,
0,
0,
0,
0,
0,
0,
0,
0,
0,
0,
0,
0,
0,
0,
0,
0,
0,
0,
0,
0,
0,
0,
0,
0,
0,
0,
0,
0,
0,
0,
0,
0,
0,
0,
0,
0,
0,
0,
0,
0,
0,
0,
0,
0,
#ENDOFDATA   :

File: SPI MM1 Chromite[0][4].msa
#FORMAT      : EMSA/MAS Spectral Data File
#VERSION     : 1.0
#TITLE       : SPI MM1dup Chromite[0][all]
#DATE        : 12-MAR-2025
#TIME        : 14:08
#OWNER       : Unknown
#NPOINTS     : 4096
#NCOLUMNS    : 1
#XUNITS      : eV
#YUNITS      : counts
#DATATYPE    : Y
#XPERCHAN    : 9.99778
#OFFSET      : 1.69135
#BEAMKV      : 20
#SIGNALTYPE  : EDS
#ELEVANGLE   : 35
#AZIMANGLE   : 0
#LIVETIME    : 239.727
#REALTIME    : 256.112
#PROBECUR    : 1.02627
#TAUWIND     : 0
#TDEADLYR    : 0
#TACTLYR     : 0.045
#TALWIND     : 0.025
#CHOFFSET    : 0.0
#XLABEL      : Energy (eV)
#YLABEL      : Counts
#XPOSITION   : 4.2257
#YPOSITION   : -0.2176
#ZPOSITION   : 31.03608
#EDSDET      : SD
##SPECIMEN   : SPI MM1dup Chromite[0][all]
##DET_HASH   : 12273538-fd48-a23f-0a19-f1e6fa85caef
##CALIB_HASH : 6abaa72c-aa41-8738-0be9-f592914732f3
##WORKING    : 15.0 mm
##DET_NAME   : EDAX All
##DET_MODE   : MediumLE
#SPECTRUM    :
26,
200,
9801,
10732,
82781,
7326,
2506,
2823,
3629,
57756,
7827,
27614,
3482,
3862,
3508,
3387,
3294,
3448,
3356,
3313,
3288,
3193,
3013,
2883,
2790,
2681,
2984,
2654,
2496,
2376,
2403,
2236,
2361,
2183,
2012,
2142,
1976,
2085,
21903,
57975,
1998,
1824,
7829,
5958,
1395,
5489,
14557,
1326,
1214,
1296,
2683,
1878,
1020,
1163,
1042,
890,
886,
897,
834,
877,
791,
790,
771,
718,
648,
673,
640,
652,
637,
566,
601,
560,
558,
512,
512,
504,
465,
503,
483,
400,
422,
386,
372,
339,
386,
353,
324,
320,
287,
310,
223,
261,
280,
234,
236,
204,
215,
175,
192,
169,
135,
174,
160,
148,
138,
117,
116,
120,
114,
83,
113,
90,
71,
97,
74,
74,
50,
58,
64,
61,
52,
65,
43,
50,
48,
34,
33,
25,
35,
29,
23,
16,
17,
16,
14,
9,
12,
8,
9,
5,
11,
1,
1,
0,
0,
0,
1,
0,
0,
0,
0,
0,
1,
0,
0,
2,
0,
0,
0,
0,
0,
0,
0,
0,
0,
0,
0,
0,
0,
0,
0,
0,
0,
0,
0,
0,
0,
0,
0,
0,
0,
0,
0,
0,
1,
0,
0,
0,
0,
0,
0,
0,
0,
0,
0,
1,
0,
0,
0,
1,
0,
0,
0,
0,
0,
0,
0,
0,
0,
0,
0,
0,
0,
0,
0,
0,
0,
0,
0,
0,
0,
0,
0,
0,
0,
0,
0,
0,
0,
0,
0,
0,
0,
0,
0,
0,
0,
0,
0,
0,
0,
0,
0,
0,
0,
0,
0,
0,
0,
0,
0,
0,
0,
0,
0,
0,
0,
0,
0,
0,
0,
0,
0,
0,
0,
0,
0,
0,
0,
0,
0,
0,
0,
0,
0,
0,
0,
0,
0,
0,
0,
0,
0,
0,
0,
0,
0,
0,
0,
0,
0,
0,
0,
0,
#ENDOFDATA   :

File: SPI MM1 Chromite[1][4].msa
#FORMAT      : EMSA/MAS Spectral Data File
#VERSION     : 1.0
#TITLE       : SPI MM1dup Chromite[1][all]
#DATE        : 12-MAR-2025
#TIME        : 14:10
#OWNER       : Unknown
#NPOINTS     : 4096
#NCOLUMNS    : 1
#XUNITS      : eV
#YUNITS      : counts
#DATATYPE    : Y
#XPERCHAN    : 9.99778
#OFFSET      : 1.69135
#BEAMKV      : 20
#SIGNALTYPE  : EDS
#ELEVANGLE   : 35
#AZIMANGLE   : 0
#LIVETIME    : 239.986
#REALTIME    : 256.301
#PROBECUR    : 1.02627
#TAUWIND     : 0
#TDEADLYR    : 0
#TACTLYR     : 0.045
#TALWIND     : 0.025
#CHOFFSET    : 0.0
#XLABEL      : Energy (eV)
#YLABEL      : Counts
#XPOSITION   : 4.29382
#YPOSITION   : -0.22923
#ZPOSITION   : 31.03608
#EDSDET      : SD
##SPECIMEN   : SPI MM1dup Chromite[1][all]
##DET_HASH   : 12273538-fd48-a23f-0a19-f1e6fa85caef
##CALIB_HASH : 6abaa72c-aa41-8738-0be9-f592914732f3
##WORKING    : 15.0 mm
##DET_NAME   : EDAX All
##DET_MODE   : MediumLE
#SPECTRUM    :
23,
225,
10187,
10534,
82527,
7605,
2486,
2877,
3693,
57265,
7824,
27305,
3516,
3631,
3473,
3375,
3360,
3335,
3370,
3338,
3183,
3074,
2998,
2836,
2876,
2814,
3076,
2508,
2397,
2365,
2304,
2278,
2461,
2171,
2049,
2146,
1980,
2039,
21827,
57740,
1945,
1759,
7748,
5900,
1325,
5333,
14537,
1337,
1222,
1265,
2741,
1868,
988,
1191,
1036,
862,
825,
830,
819,
917,
791,
791,
808,
682,
673,
692,
657,
642,
625,
621,
570,
560,
528,
537,
526,
509,
464,
494,
442,
367,
354,
408,
389,
382,
373,
353,
322,
301,
268,
289,
262,
265,
222,
232,
237,
200,
221,
193,
205,
190,
143,
150,
153,
142,
114,
142,
112,
131,
105,
97,
88,
80,
85,
93,
65,
58,
61,
60,
53,
61,
35,
57,
51,
45,
36,
28,
29,
30,
27,
25,
22,
18,
18,
17,
7,
13,
11,
6,
11,
5,
4,
6,
2,
0,
0,
0,
0,
1,
0,
1,
0,
1,
0,
0,
0,
0,
0,
0,
1,
0,
0,
0,
0,
0,
0,
0,
0,
0,
0,
0,
1,
0,
0,
0,
0,
0,
0,
0,
0,
0,
0,
0,
0,
0,
0,
0,
0,
0,
0,
0,
0,
0,
0,
0,
0,
0,
0,
0,
0,
1,
0,
0,
0,
0,
0,
0,
0,
0,
0,
0,
0,
0,
0,
0,
0,
0,
0,
0,
0,
0,
0,
0,
0,
0,
0,
0,
0,
0,
0,
0,
0,
0,
0,
0,
0,
0,
0,
0,
0,
0,
0,
0,
0,
0,
0,
0,
0,
0,
0,
0,
0,
0,
0,
0,
0,
0,
0,
0,
0,
0,
0,
0,
0,
0,
0,
0,
0,
0,
0,
0,
0,
0,
0,
0,
0,
0,
0,
0,
0,
0,
0,
0,
0,
0,
0,
0,
0,
0,
0,
0,
0,
0,
0,
0,
#ENDOFDATA   :

File: SPI MM1 Chromite[3][4].msa
#FORMAT      : EMSA/MAS Spectral Data File
#VERSION     : 1.0
#TITLE       : SPI MM1dup Chromite[3][all]
#DATE        : 12-MAR-2025
#TIME        : 14:12
#OWNER       : Unknown
#NPOINTS     : 4096
#NCOLUMNS    : 1
#XUNITS      : eV
#YUNITS      : counts
#DATATYPE    : Y
#XPERCHAN    : 9.99778
#OFFSET      : 1.69135
#BEAMKV      : 20
#SIGNALTYPE  : EDS
#ELEVANGLE   : 35
#AZIMANGLE   : 0
#LIVETIME    : 239.456
#REALTIME    : 255.794
#PROBECUR    : 1.02867
#TAUWIND     : 0
#TDEADLYR    : 0
#TACTLYR     : 0.045
#TALWIND     : 0.025
#CHOFFSET    : 0.0
#XLABEL      : Energy (eV)
#YLABEL      : Counts
#XPOSITION   : 4.22141
#YPOSITION   : -0.17041
#ZPOSITION   : 31.03608
#EDSDET      : SD
##SPECIMEN   : SPI MM1dup Chromite[3][all]
##DET_HASH   : 12273538-fd48-a23f-0a19-f1e6fa85caef
##CALIB_HASH : 6abaa72c-aa41-8738-0be9-f592914732f3
##WORKING    : 15.0 mm
##DET_NAME   : EDAX All
##DET_MODE   : MediumLE
#SPECTRUM    :
21,
224,
9656,
10598,
81984,
7446,
2389,
2880,
3625,
57514,
7867,
27445,
3594,
3774,
3503,
3287,
3326,
3400,
3376,
3273,
3209,
3143,
3043,
2860,
2881,
2756,
2957,
2563,
2439,
2353,
2325,
2174,
2382,
2195,
2081,
2166,
1949,
2129,
21737,
58098,
1897,
1825,
7767,
5886,
1373,
5358,
14495,
1378,
1201,
1273,
2679,
1894,
994,
1121,
1050,
937,
960,
860,
809,
823,
766,
759,
732,
685,
667,
679,
625,
629,
600,
612,
547,
590,
588,
512,
489,
458,
471,
483,
472,
387,
423,
421,
383,
371,
367,
358,
312,
267,
275,
287,
254,
240,
227,
243,
215,
218,
217,
200,
172,
158,
159,
137,
172,
127,
123,
142,
120,
98,
113,
109,
85,
104,
81,
78,
76,
76,
62,
61,
56,
57,
55,
49,
40,
39,
39,
31,
33,
24,
22,
14,
21,
24,
15,
15,
14,
10,
18,
4,
6,
6,
4,
7,
2,
0,
2,
1,
0,
0,
2,
0,
0,
1,
0,
1,
1,
1,
0,
0,
1,
0,
0,
0,
0,
0,
0,
0,
0,
0,
0,
1,
0,
0,
0,
0,
0,
0,
0,
1,
0,
0,
0,
0,
0,
0,
0,
0,
0,
0,
0,
0,
0,
0,
0,
0,
0,
0,
0,
0,
0,
0,
0,
0,
0,
0,
0,
0,
0,
0,
0,
0,
0,
0,
0,
0,
0,
0,
0,
0,
0,
0,
0,
0,
0,
0,
0,
0,
0,
0,
0,
0,
0,
0,
0,
0,
0,
0,
0,
0,
0,
0,
0,
0,
0,
0,
0,
0,
0,
0,
0,
0,
0,
0,
0,
0,
0,
0,
0,
0,
0,
0,
0,
0,
0,
0,
0,
0,
0,
0,
0,
0,
0,
0,
0,
0,
0,
0,
0,
0,
0,
0,
0,
0,
0,
0,
0,
0,
0,
0,
0,
0,
0,
0,
0,
0,
#ENDOFDATA   :

File: SPI MM1 Crocoite[1][4].msa
#FORMAT      : EMSA/MAS Spectral Data File
#VERSION     : 1.0
#TITLE       : SPI MM1dup Crocoite[1][all]
#DATE        : 12-MAR-2025
#TIME        : 13:50
#OWNER       : Unknown
#NPOINTS     : 4096
#NCOLUMNS    : 1
#XUNITS      : eV
#YUNITS      : counts
#DATATYPE    : Y
#XPERCHAN    : 9.99778
#OFFSET      : 1.69135
#BEAMKV      : 20
#SIGNALTYPE  : EDS
#ELEVANGLE   : 35
#AZIMANGLE   : 0
#LIVETIME    : 239.822
#REALTIME    : 261.988
#PROBECUR    : 1.02627
#TAUWIND     : 0
#TDEADLYR    : 0
#TACTLYR     : 0.045
#TALWIND     : 0.025
#CHOFFSET    : 0.0
#XLABEL      : Energy (eV)
#YLABEL      : Counts
#XPOSITION   : -1.17007
#YPOSITION   : -0.60679
#ZPOSITION   : 31.03608
#EDSDET      : SD
##SPECIMEN   : SPI MM1dup Crocoite[1][all]
##DET_HASH   : 12273538-fd48-a23f-0a19-f1e6fa85caef
##CALIB_HASH : 6abaa72c-aa41-8738-0be9-f592914732f3
##WORKING    : 15.0 mm
##DET_NAME   : EDAX All
##DET_MODE   : MediumLE
#SPECTRUM    :
24,
784,
17689,
6502,
29970,
6385,
5350,
5935,
6444,
7263,
7946,
8432,
9132,
18138,
8532,
8957,
17431,
138980,
23394,
11478,
4939,
5530,
6721,
5021,
4716,
4898,
4746,
4774,
4627,
4511,
4501,
4475,
4564,
4456,
4520,
4392,
4090,
4294,
14529,
32434,
4026,
3902,
6915,
5918,
3428,
3545,
3705,
3313,
3213,
2976,
3104,
3032,
2990,
2972,
2880,
2788,
2836,
2623,
2513,
2449,
2418,
2340,
2293,
2245,
2217,
2395,
2425,
2073,
2037,
1980,
1883,
1816,
1825,
1780,
2642,
10021,
5468,
1675,
1505,
1474,
1437,
1410,
1300,
1255,
1221,
1157,
1185,
1267,
1256,
1727,
4572,
1919,
1088,
1121,
892,
798,
780,
699,
667,
675,
644,
601,
590,
578,
587,
819,
688,
446,
530,
449,
398,
405,
379,
346,
298,
297,
278,
298,
272,
217,
215,
224,
233,
179,
212,
154,
151,
128,
141,
120,
105,
83,
106,
74,
67,
49,
60,
37,
35,
35,
29,
15,
8,
5,
4,
6,
4,
3,
1,
2,
2,
6,
2,
1,
1,
2,
0,
2,
1,
1,
2,
3,
3,
2,
1,
1,
2,
1,
1,
2,
0,
0,
2,
0,
3,
2,
1,
0,
2,
0,
0,
0,
1,
0,
0,
1,
1,
1,
0,
0,
1,
0,
0,
0,
0,
0,
0,
1,
1,
0,
0,
2,
0,
0,
0,
1,
0,
0,
0,
2,
0,
0,
1,
0,
0,
0,
0,
0,
0,
0,
0,
0,
0,
0,
0,
0,
0,
0,
0,
0,
0,
0,
0,
0,
0,
0,
0,
0,
0,
0,
0,
0,
0,
0,
0,
0,
0,
0,
0,
0,
0,
0,
0,
0,
0,
0,
0,
0,
0,
0,
0,
0,
0,
0,
0,
0,
0,
0,
0,
0,
0,
0,
0,
0,
0,
0,
0,
0,
0,
0,
0,
0,
0,
0,
0,
0,
0,
0,
0,
0,
0,
0,
0,
0,
#ENDOFDATA   :

File: SPI MM1 Crocoite[4][4].msa
#FORMAT      : EMSA/MAS Spectral Data File
#VERSION     : 1.0
#TITLE       : SPI MM1dup Crocoite[4][all]
#DATE        : 12-MAR-2025
#TIME        : 13:54
#OWNER       : Unknown
#NPOINTS     : 4096
#NCOLUMNS    : 1
#XUNITS      : eV
#YUNITS      : counts
#DATATYPE    : Y
#XPERCHAN    : 9.99778
#OFFSET      : 1.69135
#BEAMKV      : 20
#SIGNALTYPE  : EDS
#ELEVANGLE   : 35
#AZIMANGLE   : 0
#LIVETIME    : 239.841
#REALTIME    : 261.99
#PROBECUR    : 1.02627
#TAUWIND     : 0
#TDEADLYR    : 0
#TACTLYR     : 0.045
#TALWIND     : 0.025
#CHOFFSET    : 0.0
#XLABEL      : Energy (eV)
#YLABEL      : Counts
#XPOSITION   : -1.08272
#YPOSITION   : -0.62904
#ZPOSITION   : 31.03608
#EDSDET      : SD
##SPECIMEN   : SPI MM1dup Crocoite[4][all]
##DET_HASH   : 12273538-fd48-a23f-0a19-f1e6fa85caef
##CALIB_HASH : 6abaa72c-aa41-8738-0be9-f592914732f3
##WORKING    : 15.0 mm
##DET_NAME   : EDAX All
##DET_MODE   : MediumLE
#SPECTRUM    :
25,
748,
17916,
6659,
30071,
6348,
5363,
5923,
6290,
7455,
7966,
8339,
9230,
18092,
8586,
8974,
17283,
138241,
23425,
11321,
4984,
5530,
6773,
4989,
4789,
4845,
4889,
4736,
4669,
4573,
4513,
4511,
4346,
4447,
4543,
4290,
4113,
4182,
14560,
32585,
3962,
3885,
7054,
6050,
3434,
3423,
3746,
3271,
3155,
3060,
3026,
2960,
2949,
3038,
2893,
2686,
2692,
2572,
2492,
2432,
2374,
2438,
2260,
2217,
2209,
2498,
2460,
2054,
2015,
1933,
1913,
1844,
1752,
1775,
2639,
10049,
5537,
1665,
1490,
1504,
1426,
1437,
1291,
1235,
1203,
1224,
1132,
1280,
1197,
1644,
4536,
1964,
1072,
1101,
923,
824,
709,
762,
634,
647,
668,
585,
625,
595,
538,
734,
679,
483,
484,
500,
400,
429,
305,
348,
327,
291,
273,
233,
225,
236,
235,
227,
231,
183,
180,
165,
149,
152,
144,
124,
107,
93,
87,
80,
78,
53,
54,
51,
49,
36,
25,
11,
6,
2,
2,
3,
3,
6,
4,
2,
2,
4,
4,
4,
0,
0,
0,
2,
1,
2,
0,
0,
3,
1,
1,
0,
1,
2,
1,
1,
1,
1,
2,
2,
2,
0,
1,
2,
0,
0,
3,
0,
0,
0,
2,
2,
1,
1,
2,
1,
0,
1,
0,
0,
1,
0,
0,
0,
0,
0,
0,
0,
0,
0,
1,
0,
1,
0,
0,
0,
0,
0,
0,
0,
0,
1,
0,
0,
0,
0,
0,
0,
0,
0,
0,
0,
0,
0,
0,
0,
0,
0,
0,
0,
0,
0,
0,
0,
0,
0,
0,
0,
0,
0,
0,
0,
0,
0,
0,
0,
0,
0,
0,
0,
0,
0,
0,
0,
0,
0,
0,
0,
0,
0,
0,
0,
0,
0,
0,
0,
0,
0,
0,
0,
0,
0,
0,
0,
0,
0,
0,
0,
0,
0,
0,
0,
0,
0,
0,
0,
0,
0,
0,
0,
#ENDOFDATA   :

File: SPI MM1 Crocoite[6][4].msa
#FORMAT      : EMSA/MAS Spectral Data File
#VERSION     : 1.0
#TITLE       : SPI MM1dup Crocoite[6][all]
#DATE        : 12-MAR-2025
#TIME        : 13:56
#OWNER       : Unknown
#NPOINTS     : 4096
#NCOLUMNS    : 1
#XUNITS      : eV
#YUNITS      : counts
#DATATYPE    : Y
#XPERCHAN    : 9.99778
#OFFSET      : 1.69135
#BEAMKV      : 20
#SIGNALTYPE  : EDS
#ELEVANGLE   : 35
#AZIMANGLE   : 0
#LIVETIME    : 239.481
#REALTIME    : 261.4781
#PROBECUR    : 1.02627
#TAUWIND     : 0
#TDEADLYR    : 0
#TACTLYR     : 0.045
#TALWIND     : 0.025
#CHOFFSET    : 0.0
#XLABEL      : Energy (eV)
#YLABEL      : Counts
#XPOSITION   : -1.16099
#YPOSITION   : -0.58738
#ZPOSITION   : 31.03608
#EDSDET      : SD
##SPECIMEN   : SPI MM1dup Crocoite[6][all]
##DET_HASH   : 12273538-fd48-a23f-0a19-f1e6fa85caef
##CALIB_HASH : 6abaa72c-aa41-8738-0be9-f592914732f3
##WORKING    : 15.0 mm
##DET_NAME   : EDAX All
##DET_MODE   : MediumLE
#SPECTRUM    :
22,
740,
18653,
6601,
29920,
6502,
5320,
5774,
6345,
7015,
7984,
8832,
8786,
17685,
8638,
8833,
17230,
137135,
22858,
11424,
4928,
5467,
6693,
5161,
4667,
4810,
4867,
4636,
4362,
4471,
4503,
4497,
4328,
4251,
4436,
4334,
4275,
4047,
14410,
32120,
3978,
3809,
6883,
5929,
3331,
3366,
3657,
3298,
3209,
3106,
3079,
2895,
2875,
2948,
2788,
2704,
2667,
2638,
2517,
2603,
2446,
2273,
2210,
2209,
2190,
2307,
2414,
2027,
1982,
1811,
1819,
1829,
1701,
1709,
2649,
9870,
5416,
1644,
1485,
1442,
1373,
1467,
1268,
1213,
1171,
1222,
1194,
1201,
1183,
1725,
4500,
1832,
1129,
1048,
834,
760,
739,
699,
656,
643,
663,
625,
628,
599,
525,
765,
664,
503,
523,
470,
385,
421,
372,
344,
331,
307,
267,
284,
255,
251,
215,
189,
195,
190,
174,
164,
156,
159,
139,
119,
117,
105,
76,
64,
55,
59,
53,
40,
39,
37,
26,
16,
10,
4,
2,
9,
1,
3,
3,
1,
5,
2,
1,
1,
6,
1,
3,
2,
2,
0,
4,
1,
2,
3,
1,
2,
1,
3,
1,
1,
0,
0,
0,
1,
1,
1,
1,
1,
2,
1,
1,
1,
1,
0,
1,
0,
1,
0,
3,
0,
0,
0,
1,
2,
0,
1,
1,
0,
0,
0,
0,
0,
0,
0,
0,
0,
0,
0,
0,
0,
0,
0,
0,
0,
0,
0,
0,
0,
0,
0,
0,
0,
1,
0,
2,
0,
0,
0,
0,
0,
1,
0,
0,
0,
0,
0,
1,
0,
0,
0,
0,
0,
0,
0,
0,
0,
0,
0,
0,
0,
0,
0,
0,
0,
0,
0,
0,
0,
0,
0,
0,
0,
0,
0,
0,
0,
0,
0,
0,
0,
0,
0,
0,
0,
0,
0,
0,
0,
0,
0,
0,
0,
0,
0,
0,
0,
0,
0,
0,
0,
0,
0,
0,
0,
#ENDOFDATA   :

File: SPI MM1 Cryolite[6][4].msa
#FORMAT      : EMSA/MAS Spectral Data File
#VERSION     : 1.0
#TITLE       : SPI MM1dup Cryolite[6][all]
#DATE        : 12-MAR-2025
#TIME        : 13:47
#OWNER       : Unknown
#NPOINTS     : 4096
#NCOLUMNS    : 1
#XUNITS      : eV
#YUNITS      : counts
#DATATYPE    : Y
#XPERCHAN    : 9.99778
#OFFSET      : 1.69135
#BEAMKV      : 20
#SIGNALTYPE  : EDS
#ELEVANGLE   : 35
#AZIMANGLE   : 0
#LIVETIME    : 239.981
#REALTIME    : 258.535
#PROBECUR    : 1.02627
#TAUWIND     : 0
#TDEADLYR    : 0
#TACTLYR     : 0.045
#TALWIND     : 0.025
#CHOFFSET    : 0.0
#XLABEL      : Energy (eV)
#YLABEL      : Counts
#XPOSITION   : -3.97434
#YPOSITION   : -0.62182
#ZPOSITION   : 31.03608
#EDSDET      : SD
##SPECIMEN   : SPI MM1dup Cryolite[6][all]
##D2STDCMP   : Cryolite,(F:54.2963),(Na:32.8517),(Al:12.8519)
##DET_HASH   : 12273538-fd48-a23f-0a19-f1e6fa85caef
##CALIB_HASH : 6abaa72c-aa41-8738-0be9-f592914732f3
##WORKING    : 15.0 mm
##DET_NAME   : EDAX All
##DET_MODE   : MediumLE
#SPECTRUM    :
26,
369,
9495,
4316,
13477,
330772,
2536,
39683,
9881,
2381,
7200,
26366,
3212,
2353,
2197,
2638,
2238,
2239,
2397,
2255,
2100,
2115,
2049,
1946,
1954,
1752,
1689,
1726,
1612,
1505,
1402,
1493,
1397,
1383,
1297,
1246,
1197,
1222,
1167,
1064,
998,
944,
963,
954,
926,
828,
921,
786,
786,
693,
720,
728,
673,
647,
598,
606,
585,
574,
559,
493,
531,
505,
446,
477,
423,
419,
423,
410,
396,
385,
347,
335,
323,
319,
287,
303,
268,
275,
272,
246,
228,
248,
204,
216,
210,
188,
198,
190,
189,
173,
165,
181,
131,
138,
104,
119,
111,
128,
100,
111,
105,
95,
85,
75,
74,
85,
70,
53,
66,
50,
57,
53,
47,
48,
55,
35,
39,
37,
36,
22,
19,
34,
24,
16,
24,
20,
28,
12,
9,
5,
11,
10,
8,
5,
10,
3,
3,
3,
5,
0,
3,
0,
1,
0,
0,
0,
0,
0,
0,
0,
0,
1,
0,
1,
0,
0,
0,
0,
0,
0,
0,
0,
0,
0,
0,
0,
0,
0,
0,
0,
0,
0,
0,
0,
0,
0,
0,
0,
0,
0,
0,
1,
0,
0,
0,
0,
0,
0,
0,
0,
0,
0,
0,
0,
0,
0,
0,
0,
0,
0,
0,
0,
0,
0,
0,
0,
0,
0,
0,
0,
0,
0,
0,
0,
0,
0,
0,
0,
0,
0,
0,
0,
0,
0,
0,
0,
0,
0,
0,
0,
0,
0,
0,
0,
0,
0,
0,
0,
0,
0,
0,
0,
0,
0,
0,
0,
0,
0,
0,
0,
0,
0,
0,
0,
0,
0,
0,
0,
0,
0,
0,
0,
0,
0,
0,
0,
0,
0,
0,
0,
0,
0,
0,
0,
0,
0,
0,
0,
0,
0,
0,
0,
0,
0,
0,
0,
0,
0,
0,
0,
0,
0,
0,
0,
#ENDOFDATA   :