Folder: spex_quant/N132962/Quantification/20 keV/MMM1

Note: README.md
# spex_quant
Spectral data for evaluating `spex`.  It contains both standard spectra and sample spectra.

 * N132962 represents the TESCAN MIRA4 with 4 silicon nitride window silicon drift detectors in 217 D113 at NIST Gaitherburg.
  * Reference set: "N132962 20 keV" built using 'n132962_20keV.bat' for 20 keV analyses

File: SPI MM1 Albite[0][4].msa
#FORMAT      : EMSA/MAS Spectral Data File
#VERSION     : 1.0
#TITLE       : SPI MM1 Albite[0][all]
#DATE        : 11-MAR-2025
#TIME        : 12:48
#OWNER       : Unknown
#NPOINTS     : 4096
#NCOLUMNS    : 1
#XUNITS      : eV
#YUNITS      : counts
#DATATYPE    : Y
#XPERCHAN    : 9.99778
#OFFSET      : 1.69135
#BEAMKV      : 20
#SIGNALTYPE  : EDS
#ELEVANGLE   : 35
#AZIMANGLE   : 0
#LIVETIME    : 239.85
#REALTIME    : 255.9752
#PROBECUR    : 1.02699
#TAUWIND     : 0
#TDEADLYR    : 0
#TACTLYR     : 0.045
#TALWIND     : 0.025
#CHOFFSET    : 0.0
#XLABEL      : Energy (eV)
#YLABEL      : Counts
#XPOSITION   : 3.45778
#YPOSITION   : -7.05357
#ZPOSITION   : 30.9284
#EDSDET      : SD
##SPECIMEN   : SPI MM1 Albite[0][all]
##D2STDCMP   : Albite,(O:48.8112),(Na:8.7674),(Al:10.2897),(Si:32.1316)
##DET_HASH   : 12273538-fd48-a23f-0a19-f1e6fa85caef
##CALIB_HASH : 6abaa72c-aa41-8738-0be9-f592914732f3
##WORKING    : 15.0 mm
##DET_NAME   : EDAX All
##DET_MODE   : MediumLE
#SPECTRUM    :
31,
191,
7636,
6543,
67632,
2195,
2767,
14177,
5667,
3709,
9645,
33357,
73708,
34694,
2138,
2091,
2787,
2178,
2201,
2031,
2201,
2043,
2058,
2257,
2278,
2159,
1980,
1896,
1650,
1578,
1528,
1522,
1402,
1374,
1354,
1270,
1251,
1179,
1145,
1185,
1065,
1049,
972,
1005,
970,
896,
935,
836,
815,
742,
737,
716,
712,
736,
663,
660,
617,
602,
593,
593,
550,
511,
529,
529,
451,
454,
480,
398,
428,
384,
409,
361,
382,
330,
336,
346,
304,
307,
258,
254,
249,
234,
255,
216,
214,
200,
198,
211,
200,
189,
164,
168,
152,
159,
160,
141,
117,
110,
130,
106,
103,
111,
110,
92,
81,
93,
74,
78,
65,
67,
67,
53,
66,
48,
36,
44,
46,
33,
29,
36,
17,
31,
22,
15,
12,
20,
19,
18,
14,
13,
14,
13,
13,
12,
3,
4,
9,
6,
10,
4,
3,
5,
1,
0,
0,
0,
0,
0,
0,
0,
0,
0,
0,
0,
0,
0,
0,
0,
0,
0,
0,
0,
0,
0,
0,
0,
0,
0,
0,
0,
0,
0,
0,
0,
0,
0,
0,
0,
0,
0,
0,
0,
0,
0,
0,
0,
0,
0,
0,
0,
0,
0,
0,
0,
0,
0,
0,
0,
0,
0,
0,
0,
0,
0,
0,
0,
0,
0,
0,
0,
0,
0,
0,
0,
0,
0,
0,
0,
0,
0,
0,
0,
0,
0,
0,
0,
0,
0,
0,
0,
0,
0,
0,
0,
0,
0,
0,
0,
0,
0,
0,
0,
0,
0,
0,
0,
0,
0,
0,
0,
0,
0,
0,
0,
0,
0,
0,
0,
0,
0,
0,
0,
0,
0,
0,
0,
0,
0,
0,
0,
0,
0,
0,
0,
0,
0,
0,
0,
0,
0,
0,
0,
0,
0,
0,
0,
0,
0,
0,
0,
0,
0,
0,
0,
#ENDOFDATA   :

File: SPI MM1 Albite[1][4].msa
#FORMAT      : EMSA/MAS Spectral Data File
#VERSION     : 1.0
#TITLE       : SPI MM1 Albite[1][all]
#DATE        : 11-MAR-2025
#TIME        : 12:49
#OWNER       : Unknown
#NPOINTS     : 4096
#NCOLUMNS    : 1
#XUNITS      : eV
#YUNITS      : counts
#DATATYPE    : Y
#XPERCHAN    : 9.99778
#OFFSET      : 1.69135
#BEAMKV      : 20
#SIGNALTYPE  : EDS
#ELEVANGLE   : 35
#AZIMANGLE   : 0
#LIVETIME    : 239.843
#REALTIME    : 255.972
#PROBECUR    : 1.02699
#TAUWIND     : 0
#TDEADLYR    : 0
#TACTLYR     : 0.045
#TALWIND     : 0.025
#CHOFFSET    : 0.0
#XLABEL      : Energy (eV)
#YLABEL      : Counts
#XPOSITION   : 3.4476
#YPOSITION   : -6.99962
#ZPOSITION   : 30.9284
#EDSDET      : SD
##SPECIMEN   : SPI MM1 Albite[1][all]
##D2STDCMP   : Albite,(O:48.8112),(Na:8.7674),(Al:10.2897),(Si:32.1316)
##DET_HASH   : 12273538-fd48-a23f-0a19-f1e6fa85caef
##CALIB_HASH : 6abaa72c-aa41-8738-0be9-f592914732f3
##WORKING    : 15.0 mm
##DET_NAME   : EDAX All
##DET_MODE   : MediumLE
#SPECTRUM    :
33,
211,
7608,
6541,
67218,
2165,
2824,
14178,
5688,
3751,
9597,
33009,
74048,
34845,
2157,
2094,
2809,
2105,
2122,
2037,
2209,
2036,
2003,
2319,
2218,
2210,
1990,
1671,
1613,
1608,
1523,
1509,
1389,
1426,
1348,
1226,
1255,
1208,
1191,
1117,
1070,
1043,
1049,
1027,
959,
981,
946,
858,
839,
765,
816,
806,
680,
715,
647,
680,
646,
560,
599,
564,
559,
495,
501,
478,
497,
437,
417,
429,
417,
374,
412,
357,
383,
329,
340,
301,
315,
290,
277,
261,
257,
250,
211,
242,
236,
209,
198,
194,
198,
170,
170,
147,
139,
154,
123,
136,
139,
109,
106,
117,
117,
88,
104,
83,
89,
86,
64,
61,
56,
73,
52,
60,
55,
51,
43,
41,
45,
26,
46,
30,
33,
28,
26,
26,
23,
24,
25,
16,
15,
15,
13,
9,
8,
11,
3,
8,
3,
5,
2,
3,
1,
2,
1,
0,
0,
1,
0,
0,
0,
0,
0,
0,
0,
1,
0,
0,
1,
0,
0,
0,
0,
0,
0,
0,
0,
0,
0,
0,
0,
0,
0,
0,
0,
0,
0,
0,
0,
0,
0,
0,
0,
0,
0,
0,
0,
0,
0,
0,
0,
0,
0,
0,
0,
0,
0,
0,
0,
0,
0,
0,
0,
0,
0,
0,
0,
0,
0,
0,
0,
0,
0,
0,
0,
0,
0,
0,
0,
0,
0,
0,
0,
0,
0,
0,
0,
0,
0,
0,
0,
0,
0,
0,
0,
0,
0,
0,
0,
0,
0,
0,
0,
0,
0,
0,
0,
0,
0,
0,
0,
0,
0,
0,
0,
0,
0,
0,
0,
0,
0,
0,
0,
0,
0,
0,
0,
0,
0,
0,
0,
0,
0,
0,
0,
0,
0,
0,
0,
0,
0,
0,
0,
0,
0,
0,
0,
0,
0,
0,
0,
0,
0,
0,
0,
0,
#ENDOFDATA   :

File: SPI MM1 Albite[4][4].msa
#FORMAT      : EMSA/MAS Spectral Data File
#VERSION     : 1.0
#TITLE       : SPI MM1 Albite[4][all]
#DATE        : 11-MAR-2025
#TIME        : 12:53
#OWNER       : Unknown
#NPOINTS     : 4096
#NCOLUMNS    : 1
#XUNITS      : eV
#YUNITS      : counts
#DATATYPE    : Y
#XPERCHAN    : 9.99778
#OFFSET      : 1.69135
#BEAMKV      : 20
#SIGNALTYPE  : EDS
#ELEVANGLE   : 35
#AZIMANGLE   : 0
#LIVETIME    : 239.841
#REALTIME    : 255.969
#PROBECUR    : 1.02699
#TAUWIND     : 0
#TDEADLYR    : 0
#TACTLYR     : 0.045
#TALWIND     : 0.025
#CHOFFSET    : 0.0
#XLABEL      : Energy (eV)
#YLABEL      : Counts
#XPOSITION   : 3.44344
#YPOSITION   : -7.03335
#ZPOSITION   : 30.9284
#EDSDET      : SD
##SPECIMEN   : SPI MM1 Albite[4][all]
##D2STDCMP   : Albite,(O:48.8112),(Na:8.7674),(Al:10.2897),(Si:32.1316)
##DET_HASH   : 12273538-fd48-a23f-0a19-f1e6fa85caef
##CALIB_HASH : 6abaa72c-aa41-8738-0be9-f592914732f3
##WORKING    : 15.0 mm
##DET_NAME   : EDAX All
##DET_MODE   : MediumLE
#SPECTRUM    :
32,
195,
7628,
6411,
67645,
2098,
2696,
14087,
5740,
3773,
9478,
33698,
73775,
34818,
2136,
2033,
2820,
2162,
2227,
2113,
2285,
2048,
1986,
2306,
2308,
2206,
1952,
1754,
1661,
1619,
1544,
1491,
1373,
1387,
1318,
1327,
1306,
1192,
1173,
1127,
1085,
1047,
1000,
966,
947,
907,
923,
857,
817,
806,
766,
783,
665,
713,
666,
642,
650,
611,
583,
491,
544,
543,
526,
476,
446,
441,
396,
396,
410,
415,
362,
406,
350,
361,
304,
304,
317,
289,
310,
309,
248,
253,
245,
214,
205,
223,
208,
204,
174,
175,
157,
178,
151,
145,
138,
126,
112,
122,
125,
94,
93,
112,
81,
83,
82,
77,
84,
62,
51,
58,
83,
46,
47,
44,
36,
37,
35,
34,
51,
35,
36,
32,
40,
20,
22,
22,
16,
13,
21,
13,
16,
11,
13,
5,
6,
8,
9,
4,
3,
2,
2,
1,
1,
0,
1,
0,
0,
0,
0,
0,
0,
0,
0,
1,
0,
0,
0,
1,
0,
0,
0,
0,
0,
0,
0,
0,
0,
0,
0,
0,
0,
0,
0,
0,
0,
0,
0,
0,
0,
0,
0,
0,
0,
0,
0,
0,
0,
0,
0,
0,
0,
0,
0,
0,
0,
0,
0,
0,
0,
0,
0,
0,
0,
0,
0,
0,
0,
0,
0,
0,
0,
0,
0,
0,
0,
0,
0,
0,
0,
0,
0,
0,
0,
0,
0,
0,
0,
0,
0,
0,
0,
0,
0,
0,
0,
0,
0,
0,
0,
0,
0,
0,
0,
0,
0,
0,
0,
0,
0,
0,
0,
0,
0,
0,
0,
0,
0,
0,
0,
0,
0,
0,
0,
0,
0,
0,
0,
0,
0,
0,
0,
0,
0,
0,
0,
0,
0,
0,
0,
0,
0,
0,
0,
0,
0,
0,
0,
0,
0,
0,
0,
0,
0,
0,
#ENDOFDATA   :

File: SPI MM1 Albite[6][4].msa
#FORMAT      : EMSA/MAS Spectral Data File
#VERSION     : 1.0
#TITLE       : SPI MM1 Albite[6][all]
#DATE        : 11-MAR-2025
#TIME        : 12:55
#OWNER       : Unknown
#NPOINTS     : 4096
#NCOLUMNS    : 1
#XUNITS      : eV
#YUNITS      : counts
#DATATYPE    : Y
#XPERCHAN    : 9.99778
#OFFSET      : 1.69135
#BEAMKV      : 20
#SIGNALTYPE  : EDS
#ELEVANGLE   : 35
#AZIMANGLE   : 0
#LIVETIME    : 239.836
#REALTIME    : 255.9749
#PROBECUR    : 1.02699
#TAUWIND     : 0
#TDEADLYR    : 0
#TACTLYR     : 0.045
#TALWIND     : 0.025
#CHOFFSET    : 0.0
#XLABEL      : Energy (eV)
#YLABEL      : Counts
#XPOSITION   : 3.46729
#YPOSITION   : -7.06281
#ZPOSITION   : 30.9284
#EDSDET      : SD
##SPECIMEN   : SPI MM1 Albite[6][all]
##D2STDCMP   : Albite,(O:48.8112),(Na:8.7674),(Al:10.2897),(Si:32.1316)
##DET_HASH   : 12273538-fd48-a23f-0a19-f1e6fa85caef
##CALIB_HASH : 6abaa72c-aa41-8738-0be9-f592914732f3
##WORKING    : 15.0 mm
##DET_NAME   : EDAX All
##DET_MODE   : MediumLE
#SPECTRUM    :
28,
157,
7650,
6327,
67676,
2061,
2716,
13777,
5683,
3764,
9481,
33232,
73549,
34626,
2096,
2062,
2842,
2066,
2195,
2069,
2257,
2047,
1963,
2247,
2332,
2105,
2019,
1779,
1657,
1615,
1457,
1468,
1397,
1407,
1352,
1253,
1251,
1198,
1219,
1128,
1131,
1033,
1008,
950,
934,
866,
917,
808,
796,
753,
805,
748,
692,
752,
663,
644,
581,
598,
600,
532,
550,
541,
476,
493,
465,
474,
441,
422,
409,
399,
400,
387,
352,
325,
322,
348,
326,
316,
297,
272,
261,
276,
246,
239,
217,
200,
183,
200,
194,
170,
194,
161,
155,
118,
119,
133,
115,
125,
116,
114,
94,
104,
93,
78,
80,
71,
78,
59,
63,
67,
61,
67,
37,
46,
42,
49,
34,
41,
41,
38,
36,
26,
23,
23,
21,
19,
16,
9,
13,
16,
16,
5,
7,
8,
7,
6,
6,
8,
3,
1,
6,
0,
1,
0,
0,
0,
0,
0,
0,
0,
1,
0,
0,
0,
0,
0,
0,
0,
0,
0,
0,
0,
0,
0,
0,
0,
0,
0,
0,
0,
0,
0,
0,
0,
0,
0,
0,
0,
0,
0,
0,
0,
0,
0,
0,
0,
0,
0,
0,
0,
0,
0,
0,
0,
0,
0,
0,
0,
0,
0,
0,
0,
0,
0,
0,
0,
0,
0,
0,
0,
0,
0,
0,
0,
0,
0,
0,
0,
0,
0,
0,
0,
0,
0,
0,
0,
0,
0,
0,
0,
0,
0,
0,
0,
0,
0,
0,
0,
0,
0,
0,
0,
0,
0,
0,
0,
0,
0,
0,
0,
0,
0,
0,
0,
0,
0,
0,
0,
0,
0,
0,
0,
0,
0,
0,
0,
0,
0,
0,
0,
0,
0,
0,
0,
0,
0,
0,
0,
0,
0,
0,
0,
0,
0,
0,
0,
0,
0,
0,
0,
0,
0,
0,
0,
#ENDOFDATA   :

File: SPI MM1 Albite[7][4].msa
#FORMAT      : EMSA/MAS Spectral Data File
#VERSION     : 1.0
#TITLE       : SPI MM1 Albite[7][all]
#DATE        : 11-MAR-2025
#TIME        : 12:56
#OWNER       : Unknown
#NPOINTS     : 4096
#NCOLUMNS    : 1
#XUNITS      : eV
#YUNITS      : counts
#DATATYPE    : Y
#XPERCHAN    : 9.99778
#OFFSET      : 1.69135
#BEAMKV      : 20
#SIGNALTYPE  : EDS
#ELEVANGLE   : 35
#AZIMANGLE   : 0
#LIVETIME    : 239.847
#REALTIME    : 255.976
#PROBECUR    : 1.02699
#TAUWIND     : 0
#TDEADLYR    : 0
#TACTLYR     : 0.045
#TALWIND     : 0.025
#CHOFFSET    : 0.0
#XLABEL      : Energy (eV)
#YLABEL      : Counts
#XPOSITION   : 3.40978
#YPOSITION   : -7.10632
#ZPOSITION   : 30.9284
#EDSDET      : SD
##SPECIMEN   : SPI MM1 Albite[7][all]
##D2STDCMP   : Albite,(O:48.8112),(Na:8.7674),(Al:10.2897),(Si:32.1316)
##DET_HASH   : 12273538-fd48-a23f-0a19-f1e6fa85caef
##CALIB_HASH : 6abaa72c-aa41-8738-0be9-f592914732f3
##WORKING    : 15.0 mm
##DET_NAME   : EDAX All
##DET_MODE   : MediumLE
#SPECTRUM    :
25,
186,
7859,
6407,
67198,
2044,
2800,
14157,
5673,
3753,
9388,
33547,
73865,
34621,
2197,
2076,
2745,
2162,
2184,
2121,
2250,
2108,
2030,
2240,
2241,
2146,
2093,
1798,
1617,
1632,
1520,
1399,
1470,
1396,
1337,
1258,
1196,
1132,
1198,
1131,
1086,
1019,
1008,
968,
928,
876,
946,
846,
839,
837,
781,
749,
710,
682,
666,
686,
620,
614,
553,
557,
536,
475,
512,
491,
488,
442,
428,
387,
411,
393,
373,
407,
380,
343,
335,
347,
294,
316,
267,
281,
247,
263,
240,
221,
230,
197,
194,
179,
167,
159,
185,
148,
152,
138,
153,
131,
129,
124,
102,
115,
95,
102,
87,
80,
84,
84,
74,
70,
65,
54,
64,
56,
51,
48,
50,
52,
41,
34,
33,
34,
31,
28,
28,
27,
27,
13,
14,
14,
14,
9,
6,
5,
14,
11,
7,
6,
6,
8,
2,
3,
3,
2,
0,
0,
0,
0,
0,
0,
0,
0,
0,
0,
0,
0,
0,
0,
0,
0,
0,
1,
0,
0,
0,
0,
0,
0,
0,
0,
0,
0,
1,
0,
0,
0,
0,
0,
1,
0,
0,
0,
0,
0,
0,
0,
0,
0,
0,
0,
0,
0,
0,
0,
0,
0,
0,
0,
0,
0,
0,
0,
0,
0,
0,
0,
0,
0,
0,
0,
0,
0,
0,
0,
0,
0,
0,
0,
0,
0,
0,
0,
0,
0,
0,
0,
0,
0,
0,
0,
0,
0,
0,
0,
0,
0,
0,
0,
0,
0,
0,
0,
0,
0,
0,
0,
0,
0,
0,
0,
0,
0,
0,
0,
0,
0,
0,
0,
0,
0,
0,
0,
0,
0,
0,
0,
0,
0,
0,
0,
0,
0,
0,
0,
0,
0,
0,
0,
0,
0,
0,
0,
0,
0,
0,
0,
0,
0,
0,
0,
0,
0,
0,
0,
0,
0,
#ENDOFDATA   :

File: SPI MM1 Almandine[0][4].msa
#FORMAT      : EMSA/MAS Spectral Data File
#VERSION     : 1.0
#TITLE       : SPI MM1 Almandine[0][all]
#DATE        : 11-MAR-2025
#TIME        : 12:57
#OWNER       : Unknown
#NPOINTS     : 4096
#NCOLUMNS    : 1
#XUNITS      : eV
#YUNITS      : counts
#DATATYPE    : Y
#XPERCHAN    : 9.99778
#OFFSET      : 1.69135
#BEAMKV      : 20
#SIGNALTYPE  : EDS
#ELEVANGLE   : 35
#AZIMANGLE   : 0
#LIVETIME    : 239.836
#REALTIME    : 255.275
#PROBECUR    : 1.02699
#TAUWIND     : 0
#TDEADLYR    : 0
#TACTLYR     : 0.045
#TALWIND     : 0.025
#CHOFFSET    : 0.0
#XLABEL      : Energy (eV)
#YLABEL      : Counts
#XPOSITION   : 0.42431
#YPOSITION   : -7.84747
#ZPOSITION   : 30.9284
#EDSDET      : SD
##SPECIMEN   : SPI MM1 Almandine[0][all]
##D2STDCMP   : Almandine,(O:38.5719),(Al:10.8416),(Si:16.9275),(Fe:33.6591),4.05
##DET_HASH   : 12273538-fd48-a23f-0a19-f1e6fa85caef
##CALIB_HASH : 6abaa72c-aa41-8738-0be9-f592914732f3
##WORKING    : 15.0 mm
##DET_NAME   : EDAX All
##DET_MODE   : MediumLE
#SPECTRUM    :
23,
176,
9028,
6310,
59787,
15136,
2492,
2951,
3637,
41866,
8938,
31290,
39708,
19493,
2906,
2682,
3086,
2703,
2786,
2662,
2710,
2651,
2521,
2559,
2483,
2427,
9153,
4427,
2400,
3113,
1965,
1853,
1816,
1846,
1702,
1632,
1582,
1538,
1461,
1478,
1348,
1312,
2301,
1320,
1297,
9365,
27169,
1420,
1137,
1254,
4078,
2579,
849,
950,
839,
777,
782,
721,
802,
719,
701,
676,
629,
610,
598,
581,
575,
500,
519,
534,
501,
458,
461,
445,
462,
436,
432,
394,
379,
334,
347,
349,
332,
284,
283,
279,
269,
286,
239,
229,
223,
237,
219,
196,
183,
197,
171,
151,
145,
148,
125,
117,
120,
149,
93,
109,
106,
102,
78,
97,
76,
81,
103,
70,
70,
53,
45,
63,
50,
54,
42,
50,
33,
23,
35,
33,
19,
27,
17,
22,
24,
19,
9,
14,
11,
7,
13,
3,
5,
4,
2,
1,
1,
1,
0,
0,
0,
0,
0,
1,
0,
0,
0,
0,
1,
0,
0,
0,
0,
0,
0,
0,
0,
0,
0,
0,
0,
0,
0,
0,
0,
0,
0,
0,
0,
0,
0,
0,
0,
0,
0,
0,
0,
0,
0,
0,
0,
0,
0,
0,
0,
0,
0,
0,
0,
0,
0,
0,
0,
0,
0,
0,
0,
0,
0,
0,
0,
0,
0,
0,
0,
0,
0,
0,
0,
0,
0,
0,
0,
0,
0,
0,
0,
0,
0,
0,
0,
0,
0,
0,
0,
0,
0,
0,
0,
0,
0,
0,
0,
0,
0,
0,
0,
0,
0,
0,
0,
0,
0,
0,
0,
0,
0,
0,
0,
0,
0,
0,
0,
0,
0,
0,
0,
0,
0,
0,
0,
0,
0,
0,
0,
0,
0,
0,
0,
0,
0,
0,
0,
0,
0,
0,
0,
0,
0,
0,
0,
0,
0,
0,
0,
0,
0,
0,
#ENDOFDATA   :

File: SPI MM1 Almandine[1][4].msa
#FORMAT      : EMSA/MAS Spectral Data File
#VERSION     : 1.0
#TITLE       : SPI MM1 Almandine[1][all]
#DATE        : 11-MAR-2025
#TIME        : 12:59
#OWNER       : Unknown
#NPOINTS     : 4096
#NCOLUMNS    : 1
#XUNITS      : eV
#YUNITS      : counts
#DATATYPE    : Y
#XPERCHAN    : 9.99778
#OFFSET      : 1.69135
#BEAMKV      : 20
#SIGNALTYPE  : EDS
#ELEVANGLE   : 35
#AZIMANGLE   : 0
#LIVETIME    : 239.831
#REALTIME    : 255.275
#PROBECUR    : 1.02699
#TAUWIND     : 0
#TDEADLYR    : 0
#TACTLYR     : 0.045
#TALWIND     : 0.025
#CHOFFSET    : 0.0
#XLABEL      : Energy (eV)
#YLABEL      : Counts
#XPOSITION   : 0.40408
#YPOSITION   : -7.81271
#ZPOSITION   : 30.9284
#EDSDET      : SD
##SPECIMEN   : SPI MM1 Almandine[1][all]
##D2STDCMP   : Almandine,(O:38.5719),(Al:10.8416),(Si:16.9275),(Fe:33.6591),4.05
##DET_HASH   : 12273538-fd48-a23f-0a19-f1e6fa85caef
##CALIB_HASH : 6abaa72c-aa41-8738-0be9-f592914732f3
##WORKING    : 15.0 mm
##DET_NAME   : EDAX All
##DET_MODE   : MediumLE
#SPECTRUM    :
32,
189,
8883,
6360,
60496,
15297,
2379,
2983,
3747,
41935,
8936,
31445,
39111,
19402,
2857,
2681,
3056,
2776,
2756,
2708,
2657,
2630,
2556,
2619,
2389,
2530,
9407,
4477,
2359,
3133,
1916,
1872,
1806,
1931,
1662,
1728,
1547,
1586,
1492,
1508,
1431,
1355,
2299,
1375,
1319,
9377,
27757,
1417,
1096,
1197,
4083,
2445,
798,
912,
869,
827,
772,
774,
818,
720,
681,
638,
667,
639,
602,
603,
578,
551,
575,
502,
480,
477,
477,
436,
444,
442,
389,
400,
373,
354,
363,
352,
324,
303,
266,
296,
278,
247,
239,
242,
223,
219,
231,
208,
192,
167,
162,
187,
128,
149,
132,
143,
132,
104,
123,
92,
94,
87,
109,
100,
76,
77,
79,
76,
68,
63,
53,
53,
41,
54,
54,
40,
27,
33,
33,
18,
30,
26,
21,
28,
28,
16,
14,
13,
12,
6,
11,
10,
4,
3,
2,
1,
1,
0,
0,
0,
1,
0,
0,
0,
0,
0,
1,
0,
0,
0,
0,
0,
1,
1,
0,
0,
0,
0,
0,
2,
0,
0,
0,
0,
0,
0,
0,
0,
0,
0,
0,
0,
0,
0,
0,
0,
1,
0,
0,
0,
0,
0,
0,
0,
0,
0,
0,
0,
0,
0,
0,
0,
0,
0,
0,
0,
0,
0,
0,
0,
0,
0,
0,
0,
0,
0,
0,
0,
0,
0,
0,
0,
0,
0,
0,
0,
0,
0,
0,
0,
0,
0,
0,
0,
0,
0,
0,
0,
0,
1,
0,
0,
0,
0,
0,
0,
0,
0,
0,
0,
0,
0,
0,
0,
0,
0,
0,
0,
0,
0,
0,
0,
0,
0,
0,
0,
0,
0,
0,
0,
0,
0,
0,
0,
0,
0,
0,
0,
0,
0,
0,
0,
0,
0,
0,
0,
0,
0,
0,
0,
0,
0,
0,
0,
0,
0,
0,
0,
#ENDOFDATA   :

File: SPI MM1 Almandine[3][4].msa
#FORMAT      : EMSA/MAS Spectral Data File
#VERSION     : 1.0
#TITLE       : SPI MM1 Almandine[3][all]
#DATE        : 11-MAR-2025
#TIME        : 13:01
#OWNER       : Unknown
#NPOINTS     : 4096
#NCOLUMNS    : 1
#XUNITS      : eV
#YUNITS      : counts
#DATATYPE    : Y
#XPERCHAN    : 9.99778
#OFFSET      : 1.69135
#BEAMKV      : 20
#SIGNALTYPE  : EDS
#ELEVANGLE   : 35
#AZIMANGLE   : 0
#LIVETIME    : 239.851
#REALTIME    : 255.277
#PROBECUR    : 1.02699
#TAUWIND     : 0
#TDEADLYR    : 0
#TACTLYR     : 0.045
#TALWIND     : 0.025
#CHOFFSET    : 0.0
#XLABEL      : Energy (eV)
#YLABEL      : Counts
#XPOSITION   : 0.43894
#YPOSITION   : -7.89301
#ZPOSITION   : 30.9284
#EDSDET      : SD
##SPECIMEN   : SPI MM1 Almandine[3][all]
##D2STDCMP   : Almandine,(O:38.5719),(Al:10.8416),(Si:16.9275),(Fe:33.6591),4.05
##DET_HASH   : 12273538-fd48-a23f-0a19-f1e6fa85caef
##CALIB_HASH : 6abaa72c-aa41-8738-0be9-f592914732f3
##WORKING    : 15.0 mm
##DET_NAME   : EDAX All
##DET_MODE   : MediumLE
#SPECTRUM    :
24,
177,
8861,
6413,
59679,
15183,
2464,
2927,
3782,
42256,
8983,
31373,
39153,
19242,
3026,
2674,
3024,
2762,
2689,
2612,
2740,
2646,
2462,
2625,
2295,
2455,
9263,
4342,
2389,
3071,
1990,
1902,
1824,
1864,
1700,
1631,
1587,
1651,
1472,
1442,
1382,
1345,
2282,
1298,
1330,
9488,
27391,
1410,
1088,
1209,
4190,
2435,
851,
868,
809,
819,
807,
784,
745,
695,
699,
619,
676,
644,
571,
630,
593,
550,
547,
533,
515,
500,
437,
449,
409,
440,
363,
392,
401,
386,
335,
309,
314,
297,
269,
317,
260,
279,
257,
261,
252,
245,
202,
198,
172,
181,
176,
172,
149,
154,
142,
148,
114,
129,
125,
95,
113,
102,
108,
79,
74,
77,
70,
57,
79,
66,
52,
40,
52,
34,
33,
32,
32,
31,
29,
27,
21,
23,
16,
20,
13,
14,
18,
12,
15,
9,
5,
3,
3,
3,
6,
1,
1,
0,
0,
0,
0,
0,
0,
1,
0,
0,
0,
1,
0,
0,
0,
0,
0,
0,
0,
0,
0,
0,
1,
0,
1,
0,
1,
0,
0,
0,
0,
0,
0,
0,
0,
0,
0,
0,
0,
0,
0,
0,
0,
0,
0,
0,
0,
0,
0,
0,
0,
0,
0,
0,
0,
0,
0,
0,
0,
0,
0,
0,
0,
0,
0,
0,
0,
0,
0,
0,
0,
0,
0,
0,
0,
0,
0,
0,
0,
0,
0,
0,
0,
0,
0,
0,
0,
0,
0,
0,
0,
0,
0,
0,
0,
0,
0,
0,
0,
0,
0,
0,
0,
0,
0,
0,
0,
0,
0,
0,
0,
0,
0,
0,
0,
0,
0,
0,
0,
0,
0,
0,
0,
0,
0,
0,
0,
0,
0,
0,
0,
0,
0,
0,
0,
0,
0,
0,
0,
0,
0,
0,
0,
0,
0,
0,
0,
0,
0,
0,
0,
0,
#ENDOFDATA   :

File: SPI MM1 Almandine[7][4].msa
#FORMAT      : EMSA/MAS Spectral Data File
#VERSION     : 1.0
#TITLE       : SPI MM1 Almandine[7][all]
#DATE        : 11-MAR-2025
#TIME        : 13:05
#OWNER       : Unknown
#NPOINTS     : 4096
#NCOLUMNS    : 1
#XUNITS      : eV
#YUNITS      : counts
#DATATYPE    : Y
#XPERCHAN    : 9.99778
#OFFSET      : 1.69135
#BEAMKV      : 20
#SIGNALTYPE  : EDS
#ELEVANGLE   : 35
#AZIMANGLE   : 0
#LIVETIME    : 239.841
#REALTIME    : 255.278
#PROBECUR    : 1.02699
#TAUWIND     : 0
#TDEADLYR    : 0
#TACTLYR     : 0.045
#TALWIND     : 0.025
#CHOFFSET    : 0.0
#XLABEL      : Energy (eV)
#YLABEL      : Counts
#XPOSITION   : 0.40315
#YPOSITION   : -7.8607
#ZPOSITION   : 30.9284
#EDSDET      : SD
##SPECIMEN   : SPI MM1 Almandine[7][all]
##D2STDCMP   : Almandine,(O:38.5719),(Al:10.8416),(Si:16.9275),(Fe:33.6591),4.05
##DET_HASH   : 12273538-fd48-a23f-0a19-f1e6fa85caef
##CALIB_HASH : 6abaa72c-aa41-8738-0be9-f592914732f3
##WORKING    : 15.0 mm
##DET_NAME   : EDAX All
##DET_MODE   : MediumLE
#SPECTRUM    :
19,
182,
9022,
6412,
60170,
15345,
2447,
2885,
3679,
41830,
8777,
30959,
39476,
19404,
2996,
2666,
3021,
2793,
2728,
2709,
2710,
2680,
2550,
2702,
2431,
2478,
9251,
4406,
2412,
3049,
2040,
1848,
1936,
1775,
1688,
1638,
1527,
1539,
1455,
1470,
1433,
1360,
2230,
1303,
1257,
9482,
28014,
1435,
1135,
1230,
4105,
2486,
875,
924,
806,
797,
790,
758,
773,
710,
699,
659,
664,
660,
568,
542,
574,
515,
551,
508,
482,
451,
484,
462,
428,
395,
389,
378,
371,
368,
302,
322,
310,
320,
293,
303,
286,
258,
238,
244,
240,
215,
183,
226,
179,
182,
202,
180,
134,
150,
143,
144,
135,
97,
111,
111,
115,
95,
95,
68,
77,
73,
73,
63,
68,
60,
58,
55,
40,
46,
32,
46,
36,
35,
29,
33,
21,
18,
26,
20,
21,
17,
13,
11,
10,
9,
8,
7,
5,
4,
2,
1,
2,
1,
0,
0,
1,
1,
1,
0,
1,
0,
0,
0,
0,
0,
0,
0,
0,
0,
0,
0,
0,
0,
0,
0,
0,
0,
0,
0,
0,
0,
0,
0,
0,
0,
0,
0,
0,
1,
0,
0,
0,
0,
0,
0,
0,
0,
0,
0,
0,
0,
0,
0,
0,
0,
0,
0,
0,
0,
0,
0,
0,
0,
0,
0,
0,
0,
0,
0,
0,
0,
0,
0,
0,
0,
0,
0,
0,
0,
0,
0,
0,
0,
0,
0,
0,
0,
0,
0,
0,
0,
0,
0,
0,
0,
0,
0,
0,
0,
0,
0,
0,
0,
0,
0,
0,
0,
0,
0,
0,
0,
0,
0,
0,
0,
0,
0,
0,
0,
0,
0,
0,
0,
0,
0,
0,
0,
0,
0,
0,
0,
0,
0,
0,
0,
0,
0,
0,
0,
0,
0,
0,
0,
0,
0,
0,
0,
0,
0,
0,
0,
0,
0,
#ENDOFDATA   :

File: SPI MM1 Andradite[0][4].msa
#FORMAT      : EMSA/MAS Spectral Data File
#VERSION     : 1.0
#TITLE       : SPI MM1 Andradite[0][all]
#DATE        : 11-MAR-2025
#TIME        : 13:07
#OWNER       : Unknown
#NPOINTS     : 4096
#NCOLUMNS    : 1
#XUNITS      : eV
#YUNITS      : counts
#DATATYPE    : Y
#XPERCHAN    : 9.99778
#OFFSET      : 1.69135
#BEAMKV      : 20
#SIGNALTYPE  : EDS
#ELEVANGLE   : 35
#AZIMANGLE   : 0
#LIVETIME    : 239.882
#REALTIME    : 255.403
#PROBECUR    : 1.02699
#TAUWIND     : 0
#TDEADLYR    : 0
#TACTLYR     : 0.045
#TALWIND     : 0.025
#CHOFFSET    : 0.0
#XLABEL      : Energy (eV)
#YLABEL      : Counts
#XPOSITION   : -2.2034
#YPOSITION   : -7.99393
#ZPOSITION   : 30.9284
#EDSDET      : SD
##SPECIMEN   : SPI MM1 Andradite[0][all]
##D2STDCMP   : Andradite,(O:37.7805),(Si:16.5802),(Ca:23.6603),(Fe:21.979),3.86
##DET_HASH   : 12273538-fd48-a23f-0a19-f1e6fa85caef
##CALIB_HASH : 6abaa72c-aa41-8738-0be9-f592914732f3
##WORKING    : 15.0 mm
##DET_NAME   : EDAX All
##DET_MODE   : MediumLE
#SPECTRUM    :
27,
179,
12834,
3989,
31566,
14061,
2465,
2808,
3341,
4045,
5492,
10971,
42261,
21115,
4593,
3359,
3637,
3368,
3291,
3240,
3071,
3135,
3150,
2995,
2795,
3390,
61881,
21519,
4986,
11272,
2123,
1942,
1920,
1957,
1800,
1823,
1690,
1733,
1647,
1590,
1486,
1561,
2023,
1365,
1401,
9250,
26383,
1464,
1236,
1247,
4037,
2564,
991,
1069,
994,
863,
879,
854,
885,
805,
762,
727,
631,
704,
685,
633,
652,
618,
628,
577,
537,
543,
603,
514,
522,
487,
457,
452,
410,
429,
387,
399,
386,
339,
329,
327,
312,
300,
278,
281,
272,
240,
241,
214,
238,
222,
206,
213,
188,
169,
167,
159,
121,
136,
123,
124,
121,
100,
115,
90,
99,
66,
63,
75,
70,
62,
79,
62,
62,
51,
54,
45,
43,
44,
36,
28,
33,
36,
28,
20,
18,
19,
15,
15,
11,
15,
12,
3,
3,
6,
4,
1,
1,
1,
1,
1,
0,
0,
0,
0,
0,
1,
0,
0,
0,
0,
0,
0,
0,
0,
0,
0,
0,
1,
0,
0,
0,
0,
0,
0,
0,
0,
0,
0,
0,
1,
0,
0,
0,
0,
0,
0,
0,
0,
1,
0,
1,
0,
0,
1,
0,
0,
0,
0,
1,
0,
0,
0,
0,
0,
0,
0,
0,
0,
0,
0,
0,
0,
0,
0,
0,
0,
0,
0,
0,
0,
0,
0,
0,
0,
0,
0,
0,
0,
0,
0,
0,
0,
0,
0,
0,
0,
0,
0,
0,
0,
0,
0,
0,
0,
0,
0,
0,
0,
0,
0,
0,
0,
0,
0,
0,
0,
0,
0,
0,
0,
0,
0,
0,
0,
0,
0,
0,
0,
0,
0,
0,
0,
0,
0,
0,
0,
0,
0,
0,
0,
0,
0,
0,
0,
0,
0,
0,
0,
0,
0,
0,
0,
0,
0,
0,
0,
0,
0,
#ENDOFDATA   :

File: SPI MM1 Andradite[2][4].msa
#FORMAT      : EMSA/MAS Spectral Data File
#VERSION     : 1.0
#TITLE       : SPI MM1 Andradite[2][all]
#DATE        : 11-MAR-2025
#TIME        : 13:09
#OWNER       : Unknown
#NPOINTS     : 4096
#NCOLUMNS    : 1
#XUNITS      : eV
#YUNITS      : counts
#DATATYPE    : Y
#XPERCHAN    : 9.99778
#OFFSET      : 1.69135
#BEAMKV      : 20
#SIGNALTYPE  : EDS
#ELEVANGLE   : 35
#AZIMANGLE   : 0
#LIVETIME    : 239.888
#REALTIME    : 255.396
#PROBECUR    : 1.02699
#TAUWIND     : 0
#TDEADLYR    : 0
#TACTLYR     : 0.045
#TALWIND     : 0.025
#CHOFFSET    : 0.0
#XLABEL      : Energy (eV)
#YLABEL      : Counts
#XPOSITION   : -2.20217
#YPOSITION   : -8.01797
#ZPOSITION   : 30.9284
#EDSDET      : SD
##SPECIMEN   : SPI MM1 Andradite[2][all]
##D2STDCMP   : Andradite,(O:37.7805),(Si:16.5802),(Ca:23.6603),(Fe:21.979),3.86
##DET_HASH   : 12273538-fd48-a23f-0a19-f1e6fa85caef
##CALIB_HASH : 6abaa72c-aa41-8738-0be9-f592914732f3
##WORKING    : 15.0 mm
##DET_NAME   : EDAX All
##DET_MODE   : MediumLE
#SPECTRUM    :
24,
194,
12688,
3995,
31140,
14044,
2438,
2892,
3377,
4102,
5469,
11001,
42536,
21246,
4557,
3393,
3732,
3378,
3368,
3177,
3283,
3146,
3001,
3068,
2856,
3347,
61889,
21548,
5025,
10918,
2080,
2030,
1892,
1927,
1811,
1747,
1714,
1664,
1617,
1725,
1528,
1512,
1955,
1387,
1400,
9291,
26198,
1467,
1263,
1237,
4090,
2556,
966,
1036,
910,
961,
867,
845,
841,
825,
837,
764,
731,
685,
736,
672,
684,
620,
585,
629,
566,
511,
611,
465,
484,
481,
487,
431,
422,
375,
380,
377,
394,
335,
317,
340,
323,
283,
290,
302,
241,
274,
225,
248,
196,
202,
208,
189,
197,
152,
165,
143,
134,
143,
122,
132,
122,
127,
108,
96,
98,
93,
82,
72,
80,
79,
55,
72,
48,
40,
44,
46,
53,
32,
40,
25,
30,
30,
33,
22,
22,
18,
18,
15,
8,
14,
12,
5,
12,
3,
3,
1,
0,
1,
0,
0,
0,
0,
0,
1,
0,
1,
0,
0,
0,
0,
1,
0,
1,
0,
0,
0,
0,
0,
0,
0,
1,
1,
0,
1,
0,
0,
0,
0,
0,
0,
0,
0,
0,
0,
0,
0,
0,
0,
0,
0,
0,
0,
0,
0,
0,
0,
0,
0,
0,
0,
0,
0,
0,
0,
0,
0,
0,
0,
0,
0,
0,
0,
0,
0,
0,
0,
0,
0,
0,
0,
0,
0,
0,
0,
0,
0,
0,
0,
0,
0,
0,
0,
0,
0,
0,
0,
0,
0,
0,
0,
0,
0,
0,
0,
0,
0,
0,
0,
0,
0,
0,
0,
0,
0,
0,
0,
0,
0,
0,
0,
0,
0,
0,
0,
0,
0,
0,
0,
0,
0,
0,
0,
0,
0,
0,
0,
0,
0,
0,
0,
0,
0,
0,
0,
0,
0,
0,
0,
0,
0,
0,
0,
0,
0,
0,
0,
0,
0,
#ENDOFDATA   :