Folder: spex_quant/N132962/Quantification/20 keV/MMM1 (part 3)

File: SPI MM1 Arsenopyrite[4][4].msa
#FORMAT      : EMSA/MAS Spectral Data File
#VERSION     : 1.0
#TITLE       : SPI MM1 Arsenopyrite[4][all]
#DATE        : 11-MAR-2025
#TIME        : 13:39
#OWNER       : Unknown
#NPOINTS     : 4096
#NCOLUMNS    : 1
#XUNITS      : eV
#YUNITS      : counts
#DATATYPE    : Y
#XPERCHAN    : 9.99778
#OFFSET      : 1.69135
#BEAMKV      : 20
#SIGNALTYPE  : EDS
#ELEVANGLE   : 35
#AZIMANGLE   : 0
#LIVETIME    : 239.829
#REALTIME    : 260.78
#PROBECUR    : 1.02853
#TAUWIND     : 0
#TDEADLYR    : 0
#TACTLYR     : 0.045
#TALWIND     : 0.025
#CHOFFSET    : 0.0
#XLABEL      : Energy (eV)
#YLABEL      : Counts
#XPOSITION   : 2.18831
#YPOSITION   : -5.01896
#ZPOSITION   : 30.9284
#EDSDET      : SD
##SPECIMEN   : SPI MM1 Arsenopyrite[4][all]
##D2STDCMP   : Arsenopyrite,(S:19.6897),(Fe:34.2972),(As:46.0131),6.0
##DET_HASH   : 12273538-fd48-a23f-0a19-f1e6fa85caef
##CALIB_HASH : 6abaa72c-aa41-8738-0be9-f592914732f3
##WORKING    : 15.0 mm
##DET_NAME   : EDAX All
##DET_MODE   : MediumLE
#SPECTRUM    :
21,
376,
11744,
3448,
11350,
57734,
4969,
5494,
14634,
146296,
10514,
4333,
4489,
4803,
4911,
4988,
33362,
26644,
7516,
4333,
4104,
4168,
4077,
4150,
4153,
4098,
4111,
3888,
3742,
3688,
3583,
3528,
3454,
3637,
3420,
3137,
3127,
2985,
3012,
2870,
2799,
2744,
2622,
2683,
2682,
20090,
57277,
2892,
2272,
2435,
8440,
5199,
1822,
1844,
1789,
1810,
1705,
1560,
1554,
1521,
1519,
1406,
1412,
1389,
1350,
1289,
1227,
1230,
1213,
1145,
1153,
1052,
1108,
1081,
2581,
17610,
5882,
942,
872,
869,
812,
842,
793,
1839,
2769,
863,
655,
597,
605,
517,
547,
550,
519,
518,
423,
422,
444,
429,
380,
350,
350,
298,
339,
285,
265,
276,
267,
233,
237,
229,
195,
189,
179,
166,
162,
146,
150,
119,
123,
123,
115,
135,
90,
76,
81,
96,
68,
72,
62,
75,
61,
52,
30,
35,
40,
29,
26,
30,
26,
11,
6,
13,
5,
1,
2,
3,
2,
2,
3,
4,
4,
1,
1,
0,
0,
0,
2,
2,
1,
1,
1,
1,
1,
2,
2,
1,
2,
1,
2,
0,
0,
0,
1,
0,
0,
0,
0,
0,
1,
1,
1,
0,
0,
0,
0,
1,
0,
0,
0,
0,
0,
0,
0,
1,
0,
0,
0,
0,
0,
0,
0,
0,
0,
0,
0,
0,
0,
0,
0,
0,
0,
1,
0,
0,
0,
0,
0,
0,
0,
0,
0,
0,
0,
0,
0,
0,
0,
0,
0,
0,
0,
0,
0,
0,
0,
0,
0,
0,
0,
0,
0,
0,
0,
0,
0,
0,
0,
0,
0,
0,
0,
0,
0,
0,
0,
0,
0,
0,
0,
0,
0,
0,
0,
0,
0,
0,
0,
0,
0,
0,
0,
0,
0,
0,
0,
0,
0,
0,
0,
0,
0,
0,
0,
0,
0,
0,
0,
0,
0,
0,
0,
0,
0,
0,
#ENDOFDATA   :

File: SPI MM1 Arsenopyrite[5][4].msa
#FORMAT      : EMSA/MAS Spectral Data File
#VERSION     : 1.0
#TITLE       : SPI MM1 Arsenopyrite[5][all]
#DATE        : 11-MAR-2025
#TIME        : 13:40
#OWNER       : Unknown
#NPOINTS     : 4096
#NCOLUMNS    : 1
#XUNITS      : eV
#YUNITS      : counts
#DATATYPE    : Y
#XPERCHAN    : 9.99778
#OFFSET      : 1.69135
#BEAMKV      : 20
#SIGNALTYPE  : EDS
#ELEVANGLE   : 35
#AZIMANGLE   : 0
#LIVETIME    : 239.836
#REALTIME    : 260.78
#PROBECUR    : 1.02853
#TAUWIND     : 0
#TDEADLYR    : 0
#TACTLYR     : 0.045
#TALWIND     : 0.025
#CHOFFSET    : 0.0
#XLABEL      : Energy (eV)
#YLABEL      : Counts
#XPOSITION   : 2.16876
#YPOSITION   : -5.10671
#ZPOSITION   : 30.9284
#EDSDET      : SD
##SPECIMEN   : SPI MM1 Arsenopyrite[5][all]
##D2STDCMP   : Arsenopyrite,(S:19.6897),(Fe:34.2972),(As:46.0131),6.0
##DET_HASH   : 12273538-fd48-a23f-0a19-f1e6fa85caef
##CALIB_HASH : 6abaa72c-aa41-8738-0be9-f592914732f3
##WORKING    : 15.0 mm
##DET_NAME   : EDAX All
##DET_MODE   : MediumLE
#SPECTRUM    :
27,
361,
11686,
3357,
11206,
58148,
4882,
5470,
14658,
145461,
10494,
4260,
4544,
5067,
4691,
4948,
33540,
27155,
7626,
4378,
4153,
4190,
4272,
4209,
4136,
4069,
4151,
3895,
3859,
3756,
3573,
3598,
3429,
3550,
3318,
3162,
3084,
3029,
2942,
3005,
2870,
2752,
2581,
2681,
2648,
19998,
57562,
2780,
2276,
2427,
8489,
5318,
1875,
1898,
1791,
1858,
1615,
1571,
1603,
1568,
1501,
1439,
1407,
1350,
1313,
1268,
1264,
1250,
1210,
1149,
1095,
1095,
1055,
1068,
2528,
17332,
5878,
988,
872,
829,
865,
821,
807,
1808,
2776,
853,
632,
621,
552,
591,
541,
553,
519,
436,
449,
420,
390,
403,
398,
355,
345,
330,
305,
290,
287,
267,
249,
247,
244,
220,
235,
199,
205,
190,
182,
138,
175,
126,
138,
106,
117,
139,
106,
83,
87,
95,
81,
69,
75,
59,
47,
45,
60,
29,
31,
33,
27,
11,
20,
13,
14,
7,
2,
5,
2,
3,
0,
3,
1,
3,
3,
2,
2,
1,
3,
3,
2,
2,
0,
2,
0,
0,
1,
0,
2,
1,
1,
1,
0,
0,
0,
0,
0,
0,
0,
0,
0,
0,
0,
1,
0,
0,
0,
1,
0,
0,
0,
0,
1,
0,
0,
0,
0,
0,
0,
0,
0,
0,
0,
0,
0,
0,
0,
0,
0,
0,
0,
0,
0,
0,
0,
0,
1,
0,
0,
0,
0,
0,
0,
0,
0,
0,
0,
0,
0,
0,
0,
0,
0,
0,
0,
0,
0,
0,
0,
0,
0,
0,
0,
0,
0,
0,
0,
0,
0,
0,
0,
0,
0,
0,
0,
0,
0,
0,
0,
0,
0,
1,
0,
0,
0,
0,
0,
0,
0,
0,
0,
0,
0,
0,
0,
0,
0,
0,
0,
0,
0,
0,
0,
0,
0,
0,
0,
0,
0,
0,
0,
0,
0,
0,
0,
0,
0,
0,
#ENDOFDATA   :

File: SPI MM1 Arsenopyrite[7][4].msa
#FORMAT      : EMSA/MAS Spectral Data File
#VERSION     : 1.0
#TITLE       : SPI MM1 Arsenopyrite[7][all]
#DATE        : 11-MAR-2025
#TIME        : 13:43
#OWNER       : Unknown
#NPOINTS     : 4096
#NCOLUMNS    : 1
#XUNITS      : eV
#YUNITS      : counts
#DATATYPE    : Y
#XPERCHAN    : 9.99778
#OFFSET      : 1.69135
#BEAMKV      : 20
#SIGNALTYPE  : EDS
#ELEVANGLE   : 35
#AZIMANGLE   : 0
#LIVETIME    : 239.8199
#REALTIME    : 260.782
#PROBECUR    : 1.02853
#TAUWIND     : 0
#TDEADLYR    : 0
#TACTLYR     : 0.045
#TALWIND     : 0.025
#CHOFFSET    : 0.0
#XLABEL      : Energy (eV)
#YLABEL      : Counts
#XPOSITION   : 2.19274
#YPOSITION   : -5.00754
#ZPOSITION   : 30.9284
#EDSDET      : SD
##SPECIMEN   : SPI MM1 Arsenopyrite[7][all]
##D2STDCMP   : Arsenopyrite,(S:19.6897),(Fe:34.2972),(As:46.0131),6.0
##DET_HASH   : 12273538-fd48-a23f-0a19-f1e6fa85caef
##CALIB_HASH : 6abaa72c-aa41-8738-0be9-f592914732f3
##WORKING    : 15.0 mm
##DET_NAME   : EDAX All
##DET_MODE   : MediumLE
#SPECTRUM    :
25,
367,
11662,
3189,
11223,
57780,
5084,
5462,
14504,
146615,
10297,
4358,
4509,
4848,
4868,
4988,
33153,
26774,
7719,
4365,
4195,
4165,
4197,
4003,
4193,
4082,
4231,
3910,
3795,
3778,
3696,
3533,
3514,
3555,
3338,
3197,
3086,
3077,
2949,
2878,
2826,
2782,
2681,
2725,
2753,
19897,
57357,
2892,
2226,
2330,
8523,
5438,
1816,
1881,
1780,
1793,
1643,
1595,
1580,
1553,
1489,
1458,
1450,
1454,
1311,
1304,
1297,
1182,
1192,
1138,
1125,
1083,
1031,
1016,
2591,
17500,
5885,
962,
893,
857,
876,
869,
824,
1839,
2729,
871,
585,
597,
567,
543,
545,
569,
528,
476,
459,
432,
401,
396,
368,
374,
332,
334,
325,
290,
297,
278,
277,
219,
251,
250,
209,
173,
188,
178,
166,
125,
164,
140,
136,
129,
127,
127,
130,
86,
77,
81,
81,
76,
59,
52,
50,
41,
40,
37,
27,
32,
15,
18,
16,
16,
11,
5,
10,
8,
2,
0,
1,
3,
1,
0,
3,
1,
0,
2,
0,
0,
0,
2,
2,
2,
0,
1,
0,
1,
1,
0,
1,
0,
2,
3,
0,
0,
2,
0,
0,
0,
1,
0,
1,
0,
0,
0,
1,
0,
0,
1,
0,
0,
3,
0,
0,
0,
0,
0,
0,
1,
0,
0,
0,
0,
0,
0,
0,
0,
0,
0,
0,
0,
0,
0,
0,
0,
0,
0,
0,
0,
0,
0,
0,
0,
0,
0,
0,
0,
0,
0,
0,
0,
0,
0,
0,
0,
0,
0,
0,
0,
0,
0,
0,
0,
0,
0,
0,
0,
0,
0,
0,
0,
0,
0,
0,
0,
0,
0,
0,
0,
0,
0,
0,
0,
0,
0,
0,
0,
0,
0,
0,
0,
0,
0,
0,
0,
0,
0,
0,
0,
0,
0,
0,
0,
0,
0,
0,
0,
0,
0,
0,
0,
0,
0,
0,
0,
0,
0,
#ENDOFDATA   :

File: SPI MM1 Barite[1][4].msa
#FORMAT      : EMSA/MAS Spectral Data File
#VERSION     : 1.0
#TITLE       : SPI MM1 Barite[1][all]
#DATE        : 11-MAR-2025
#TIME        : 13:26
#OWNER       : Unknown
#NPOINTS     : 4096
#NCOLUMNS    : 1
#XUNITS      : eV
#YUNITS      : counts
#DATATYPE    : Y
#XPERCHAN    : 9.99778
#OFFSET      : 1.69135
#BEAMKV      : 20
#SIGNALTYPE  : EDS
#ELEVANGLE   : 35
#AZIMANGLE   : 0
#LIVETIME    : 239.878
#REALTIME    : 258.922
#PROBECUR    : 1.02853
#TAUWIND     : 0
#TDEADLYR    : 0
#TACTLYR     : 0.045
#TALWIND     : 0.025
#CHOFFSET    : 0.0
#XLABEL      : Energy (eV)
#YLABEL      : Counts
#XPOSITION   : -0.46765
#YPOSITION   : -5.02625
#ZPOSITION   : 30.9284
#EDSDET      : SD
##SPECIMEN   : SPI MM1 Barite[1][all]
##DET_HASH   : 12273538-fd48-a23f-0a19-f1e6fa85caef
##CALIB_HASH : 6abaa72c-aa41-8738-0be9-f592914732f3
##WORKING    : 15.0 mm
##DET_NAME   : EDAX All
##DET_MODE   : MediumLE
#SPECTRUM    :
16,
1033,
13969,
8258,
55513,
5985,
5303,
5886,
4340,
4411,
4844,
5302,
5685,
6374,
5553,
5750,
28253,
24256,
7007,
5181,
5041,
4859,
5127,
4691,
4690,
4442,
4333,
4317,
6384,
4673,
4238,
9325,
82998,
4905,
18889,
26086,
6082,
16043,
3339,
5054,
5130,
3892,
3415,
2638,
2261,
2388,
2545,
2217,
2194,
2128,
2113,
2051,
1941,
2087,
1992,
1872,
1847,
1744,
1661,
1704,
1557,
1645,
1542,
1542,
1504,
1428,
1412,
1353,
1370,
1280,
1299,
1221,
1163,
1135,
1098,
1129,
1090,
979,
965,
958,
910,
877,
888,
819,
821,
762,
765,
745,
664,
723,
658,
609,
614,
519,
521,
574,
489,
476,
419,
466,
423,
390,
364,
363,
325,
322,
315,
287,
277,
246,
243,
269,
226,
224,
172,
155,
200,
184,
156,
149,
131,
129,
92,
102,
127,
102,
79,
87,
79,
84,
63,
43,
56,
43,
38,
33,
28,
25,
23,
15,
16,
11,
1,
1,
0,
0,
2,
2,
1,
3,
0,
2,
3,
1,
0,
0,
1,
1,
0,
0,
0,
0,
0,
1,
0,
0,
0,
0,
0,
1,
0,
0,
1,
1,
1,
1,
0,
0,
0,
0,
1,
0,
0,
0,
0,
0,
1,
0,
0,
0,
0,
0,
0,
0,
0,
0,
0,
0,
0,
0,
0,
0,
0,
0,
1,
0,
0,
0,
0,
0,
0,
0,
0,
0,
0,
0,
0,
0,
0,
0,
0,
0,
0,
0,
0,
0,
0,
0,
0,
0,
0,
0,
0,
0,
0,
0,
0,
0,
0,
0,
0,
0,
0,
0,
0,
0,
0,
0,
0,
0,
0,
0,
0,
0,
0,
0,
0,
0,
0,
0,
0,
0,
0,
0,
0,
0,
0,
0,
0,
0,
0,
0,
0,
0,
0,
0,
0,
0,
0,
0,
0,
0,
0,
0,
0,
0,
0,
0,
0,
0,
0,
0,
0,
0,
#ENDOFDATA   :

File: SPI MM1 Barite[4][4].msa
#FORMAT      : EMSA/MAS Spectral Data File
#VERSION     : 1.0
#TITLE       : SPI MM1 Barite[4][all]
#DATE        : 11-MAR-2025
#TIME        : 13:30
#OWNER       : Unknown
#NPOINTS     : 4096
#NCOLUMNS    : 1
#XUNITS      : eV
#YUNITS      : counts
#DATATYPE    : Y
#XPERCHAN    : 9.99778
#OFFSET      : 1.69135
#BEAMKV      : 20
#SIGNALTYPE  : EDS
#ELEVANGLE   : 35
#AZIMANGLE   : 0
#LIVETIME    : 239.962
#REALTIME    : 259.014
#PROBECUR    : 1.02853
#TAUWIND     : 0
#TDEADLYR    : 0
#TACTLYR     : 0.045
#TALWIND     : 0.025
#CHOFFSET    : 0.0
#XLABEL      : Energy (eV)
#YLABEL      : Counts
#XPOSITION   : -0.37549
#YPOSITION   : -4.97811
#ZPOSITION   : 30.9284
#EDSDET      : SD
##SPECIMEN   : SPI MM1 Barite[4][all]
##DET_HASH   : 12273538-fd48-a23f-0a19-f1e6fa85caef
##CALIB_HASH : 6abaa72c-aa41-8738-0be9-f592914732f3
##WORKING    : 15.0 mm
##DET_NAME   : EDAX All
##DET_MODE   : MediumLE
#SPECTRUM    :
19,
1101,
13973,
8126,
55371,
5904,
5308,
6116,
4272,
4307,
4746,
5228,
5817,
6276,
5604,
5575,
27761,
24405,
7156,
5127,
5181,
5025,
4969,
4664,
4645,
4513,
4412,
4392,
6557,
4701,
4238,
9383,
83088,
5092,
19034,
26140,
6108,
16001,
3272,
5077,
5107,
3806,
3397,
2651,
2237,
2302,
2481,
2254,
2135,
2155,
2018,
1981,
1969,
2069,
1993,
1878,
1784,
1810,
1746,
1707,
1672,
1610,
1555,
1474,
1505,
1437,
1420,
1451,
1394,
1342,
1245,
1248,
1228,
1115,
1160,
1084,
1048,
964,
981,
910,
947,
856,
853,
819,
766,
781,
715,
744,
680,
623,
660,
614,
576,
561,
560,
537,
516,
491,
462,
461,
426,
407,
351,
379,
305,
347,
317,
321,
291,
278,
251,
215,
260,
219,
204,
187,
173,
164,
171,
142,
137,
138,
134,
107,
108,
102,
84,
94,
62,
84,
62,
61,
56,
46,
35,
38,
24,
22,
28,
20,
12,
3,
6,
1,
1,
1,
0,
2,
0,
2,
0,
0,
4,
1,
3,
3,
0,
1,
0,
0,
1,
0,
4,
0,
0,
0,
0,
0,
0,
0,
0,
0,
0,
0,
0,
0,
1,
0,
0,
1,
0,
0,
0,
0,
0,
0,
0,
0,
0,
0,
0,
0,
0,
0,
0,
0,
0,
0,
0,
0,
0,
0,
0,
0,
0,
0,
0,
0,
0,
1,
0,
1,
0,
0,
0,
0,
0,
0,
0,
0,
0,
0,
0,
0,
0,
0,
0,
0,
0,
1,
0,
0,
0,
0,
0,
0,
0,
0,
0,
0,
0,
0,
0,
0,
0,
0,
0,
0,
0,
0,
0,
0,
0,
0,
0,
0,
0,
0,
0,
0,
0,
0,
0,
0,
0,
0,
0,
0,
0,
0,
0,
0,
0,
0,
0,
0,
0,
0,
0,
0,
0,
0,
0,
0,
0,
0,
0,
0,
0,
0,
0,
0,
0,
0,
#ENDOFDATA   :

File: SPI MM1 Barite[6][4].msa
#FORMAT      : EMSA/MAS Spectral Data File
#VERSION     : 1.0
#TITLE       : SPI MM1 Barite[6][all]
#DATE        : 11-MAR-2025
#TIME        : 13:32
#OWNER       : Unknown
#NPOINTS     : 4096
#NCOLUMNS    : 1
#XUNITS      : eV
#YUNITS      : counts
#DATATYPE    : Y
#XPERCHAN    : 9.99778
#OFFSET      : 1.69135
#BEAMKV      : 20
#SIGNALTYPE  : EDS
#ELEVANGLE   : 35
#AZIMANGLE   : 0
#LIVETIME    : 239.881
#REALTIME    : 258.92
#PROBECUR    : 1.02853
#TAUWIND     : 0
#TDEADLYR    : 0
#TACTLYR     : 0.045
#TALWIND     : 0.025
#CHOFFSET    : 0.0
#XLABEL      : Energy (eV)
#YLABEL      : Counts
#XPOSITION   : -0.3537
#YPOSITION   : -5.01357
#ZPOSITION   : 30.9284
#EDSDET      : SD
##SPECIMEN   : SPI MM1 Barite[6][all]
##DET_HASH   : 12273538-fd48-a23f-0a19-f1e6fa85caef
##CALIB_HASH : 6abaa72c-aa41-8738-0be9-f592914732f3
##WORKING    : 15.0 mm
##DET_NAME   : EDAX All
##DET_MODE   : MediumLE
#SPECTRUM    :
18,
1054,
13788,
8049,
55541,
5944,
5326,
5955,
4345,
4391,
4725,
5271,
5670,
6364,
5460,
5639,
27855,
24441,
7163,
5077,
5126,
4887,
5010,
4756,
4555,
4455,
4320,
4364,
6584,
4663,
4163,
9447,
82851,
5104,
18843,
26248,
6152,
16010,
3317,
5143,
5159,
3984,
3405,
2638,
2345,
2469,
2502,
2179,
2189,
2269,
2089,
2040,
2035,
2150,
1893,
1862,
1827,
1784,
1736,
1664,
1665,
1573,
1589,
1481,
1533,
1416,
1457,
1334,
1350,
1300,
1260,
1271,
1170,
1150,
1100,
1077,
1013,
1015,
960,
1004,
924,
911,
903,
845,
791,
756,
750,
705,
651,
645,
672,
665,
607,
597,
562,
495,
490,
472,
470,
432,
447,
410,
362,
349,
335,
357,
326,
327,
276,
282,
271,
233,
226,
243,
206,
200,
180,
154,
144,
153,
132,
152,
120,
112,
106,
91,
75,
76,
81,
88,
61,
68,
55,
37,
37,
39,
22,
24,
18,
16,
6,
5,
5,
1,
3,
0,
1,
0,
4,
2,
4,
0,
0,
1,
1,
2,
1,
1,
2,
1,
3,
1,
0,
0,
1,
1,
0,
0,
0,
1,
0,
0,
0,
0,
0,
0,
0,
0,
0,
0,
0,
0,
0,
0,
0,
0,
0,
0,
0,
0,
0,
0,
0,
0,
0,
0,
0,
0,
0,
0,
0,
0,
0,
0,
0,
0,
0,
0,
0,
0,
0,
0,
0,
0,
0,
0,
0,
0,
0,
0,
0,
0,
0,
0,
0,
0,
0,
0,
0,
0,
0,
0,
0,
0,
0,
0,
0,
0,
0,
0,
0,
0,
0,
0,
0,
0,
0,
0,
0,
0,
0,
0,
0,
0,
0,
0,
0,
0,
0,
0,
0,
0,
0,
0,
0,
0,
0,
0,
0,
0,
0,
0,
0,
0,
0,
0,
0,
0,
0,
0,
0,
0,
0,
0,
0,
0,
0,
0,
0,
0,
0,
0,
0,
0,
#ENDOFDATA   :

File: SPI MM1 Benitoite[0][4].msa
#FORMAT      : EMSA/MAS Spectral Data File
#VERSION     : 1.0
#TITLE       : SPI MM1 Benitoite[0][all]
#DATE        : 11-MAR-2025
#TIME        : 13:16
#OWNER       : Unknown
#NPOINTS     : 4096
#NCOLUMNS    : 1
#XUNITS      : eV
#YUNITS      : counts
#DATATYPE    : Y
#XPERCHAN    : 9.99778
#OFFSET      : 1.69135
#BEAMKV      : 20
#SIGNALTYPE  : EDS
#ELEVANGLE   : 35
#AZIMANGLE   : 0
#LIVETIME    : 239.852
#REALTIME    : 256.75
#PROBECUR    : 1.02699
#TAUWIND     : 0
#TDEADLYR    : 0
#TACTLYR     : 0.045
#TALWIND     : 0.025
#CHOFFSET    : 0.0
#XLABEL      : Energy (eV)
#YLABEL      : Counts
#XPOSITION   : -3.27661
#YPOSITION   : -4.90693
#ZPOSITION   : 30.9284
#EDSDET      : SD
##SPECIMEN   : SPI MM1 Benitoite[0][all]
##D2STDCMP   : Benitoite,(O:34.828),(Si:20.3791),(Ti:11.5776),(Ba:33.2153)
##DET_HASH   : 12273538-fd48-a23f-0a19-f1e6fa85caef
##CALIB_HASH : 6abaa72c-aa41-8738-0be9-f592914732f3
##WORKING    : 15.0 mm
##DET_NAME   : EDAX All
##DET_MODE   : MediumLE
#SPECTRUM    :
27,
291,
11438,
12159,
44570,
3683,
4045,
4791,
3953,
4145,
4664,
5502,
45952,
23052,
3747,
3986,
4223,
4022,
3954,
4234,
4246,
3911,
3912,
3753,
3728,
3627,
3425,
3425,
4444,
3485,
3263,
6277,
81083,
7296,
11239,
19340,
4713,
9187,
2426,
3354,
3425,
2778,
2395,
1958,
1858,
1950,
1905,
1629,
1661,
1661,
1532,
1445,
1535,
1573,
1461,
1278,
1345,
1317,
1298,
1188,
1170,
1167,
1133,
1046,
1057,
1054,
1018,
987,
982,
943,
863,
890,
859,
839,
798,
715,
740,
712,
656,
668,
619,
624,
569,
607,
590,
551,
502,
495,
448,
449,
444,
458,
365,
396,
354,
353,
346,
350,
300,
294,
271,
231,
268,
250,
217,
232,
199,
201,
177,
168,
152,
133,
153,
144,
137,
140,
125,
105,
83,
72,
73,
89,
77,
71,
66,
64,
53,
53,
42,
36,
40,
32,
20,
18,
22,
15,
30,
11,
15,
8,
12,
6,
5,
2,
1,
0,
0,
2,
0,
0,
0,
2,
1,
0,
1,
0,
0,
1,
0,
1,
0,
1,
0,
1,
1,
0,
0,
0,
1,
0,
0,
0,
0,
0,
0,
0,
0,
0,
0,
0,
0,
0,
1,
0,
0,
0,
0,
0,
0,
1,
0,
0,
0,
0,
0,
0,
0,
0,
0,
0,
0,
0,
0,
0,
0,
0,
0,
0,
0,
0,
0,
0,
0,
0,
0,
0,
0,
0,
0,
0,
0,
0,
0,
0,
0,
0,
0,
0,
0,
0,
0,
0,
0,
0,
0,
0,
0,
0,
0,
0,
0,
0,
0,
0,
0,
0,
0,
0,
0,
0,
0,
0,
0,
0,
0,
0,
0,
0,
0,
0,
0,
0,
0,
0,
0,
0,
0,
0,
0,
0,
0,
0,
0,
0,
0,
0,
0,
0,
0,
0,
0,
0,
0,
0,
0,
0,
0,
0,
0,
0,
0,
0,
0,
0,
#ENDOFDATA   :

File: SPI MM1 Benitoite[1][4].msa
#FORMAT      : EMSA/MAS Spectral Data File
#VERSION     : 1.0
#TITLE       : SPI MM1 Benitoite[1][all]
#DATE        : 11-MAR-2025
#TIME        : 13:17
#OWNER       : Unknown
#NPOINTS     : 4096
#NCOLUMNS    : 1
#XUNITS      : eV
#YUNITS      : counts
#DATATYPE    : Y
#XPERCHAN    : 9.99778
#OFFSET      : 1.69135
#BEAMKV      : 20
#SIGNALTYPE  : EDS
#ELEVANGLE   : 35
#AZIMANGLE   : 0
#LIVETIME    : 239.902
#REALTIME    : 256.808
#PROBECUR    : 1.02699
#TAUWIND     : 0
#TDEADLYR    : 0
#TACTLYR     : 0.045
#TALWIND     : 0.025
#CHOFFSET    : 0.0
#XLABEL      : Energy (eV)
#YLABEL      : Counts
#XPOSITION   : -3.29675
#YPOSITION   : -4.84202
#ZPOSITION   : 30.9284
#EDSDET      : SD
##SPECIMEN   : SPI MM1 Benitoite[1][all]
##D2STDCMP   : Benitoite,(O:34.828),(Si:20.3791),(Ti:11.5776),(Ba:33.2153)
##DET_HASH   : 12273538-fd48-a23f-0a19-f1e6fa85caef
##CALIB_HASH : 6abaa72c-aa41-8738-0be9-f592914732f3
##WORKING    : 15.0 mm
##DET_NAME   : EDAX All
##DET_MODE   : MediumLE
#SPECTRUM    :
29,
271,
11598,
12006,
44072,
3516,
4148,
4748,
3878,
4199,
4542,
5443,
46400,
23381,
3857,
4087,
4453,
3985,
4045,
4196,
4225,
3778,
3949,
3833,
3767,
3727,
3470,
3420,
4534,
3356,
3150,
6312,
80710,
7076,
11177,
19494,
4598,
9195,
2393,
3283,
3393,
2731,
2380,
1952,
1848,
1921,
1926,
1682,
1609,
1603,
1609,
1612,
1476,
1507,
1379,
1374,
1369,
1327,
1327,
1265,
1188,
1180,
1163,
1115,
1161,
1042,
985,
1007,
1020,
927,
1005,
875,
844,
784,
822,
735,
759,
763,
729,
659,
617,
591,
561,
572,
572,
517,
562,
500,
475,
465,
430,
432,
385,
396,
372,
336,
357,
302,
291,
314,
265,
268,
242,
252,
237,
197,
216,
180,
201,
190,
159,
152,
140,
126,
111,
125,
107,
108,
98,
111,
95,
65,
84,
68,
76,
56,
44,
52,
48,
44,
47,
38,
36,
33,
23,
26,
15,
17,
14,
9,
9,
4,
3,
4,
1,
2,
1,
1,
0,
0,
1,
0,
0,
1,
0,
0,
0,
0,
1,
0,
0,
1,
0,
0,
0,
0,
0,
0,
0,
0,
0,
0,
0,
0,
0,
0,
0,
0,
0,
0,
0,
0,
1,
0,
0,
0,
0,
0,
1,
0,
0,
0,
0,
1,
0,
0,
0,
0,
0,
0,
0,
0,
0,
0,
0,
0,
0,
0,
0,
0,
0,
0,
0,
0,
0,
0,
0,
0,
0,
0,
0,
0,
0,
0,
0,
0,
0,
0,
0,
0,
0,
0,
0,
0,
0,
0,
0,
0,
0,
0,
0,
0,
0,
0,
0,
0,
0,
0,
0,
0,
0,
0,
0,
0,
0,
0,
0,
0,
0,
0,
0,
0,
0,
0,
0,
0,
0,
0,
0,
0,
0,
0,
0,
0,
0,
0,
0,
0,
0,
0,
0,
0,
0,
0,
0,
0,
0,
0,
0,
0,
0,
0,
0,
0,
#ENDOFDATA   :

File: SPI MM1 Benitoite[4][4].msa
#FORMAT      : EMSA/MAS Spectral Data File
#VERSION     : 1.0
#TITLE       : SPI MM1 Benitoite[4][all]
#DATE        : 11-MAR-2025
#TIME        : 13:20
#OWNER       : Unknown
#NPOINTS     : 4096
#NCOLUMNS    : 1
#XUNITS      : eV
#YUNITS      : counts
#DATATYPE    : Y
#XPERCHAN    : 9.99778
#OFFSET      : 1.69135
#BEAMKV      : 20
#SIGNALTYPE  : EDS
#ELEVANGLE   : 35
#AZIMANGLE   : 0
#LIVETIME    : 239.899
#REALTIME    : 256.805
#PROBECUR    : 1.02853
#TAUWIND     : 0
#TDEADLYR    : 0
#TACTLYR     : 0.045
#TALWIND     : 0.025
#CHOFFSET    : 0.0
#XLABEL      : Energy (eV)
#YLABEL      : Counts
#XPOSITION   : -3.32112
#YPOSITION   : -4.82942
#ZPOSITION   : 30.9284
#EDSDET      : SD
##SPECIMEN   : SPI MM1 Benitoite[4][all]
##D2STDCMP   : Benitoite,(O:34.828),(Si:20.3791),(Ti:11.5776),(Ba:33.2153)
##DET_HASH   : 12273538-fd48-a23f-0a19-f1e6fa85caef
##CALIB_HASH : 6abaa72c-aa41-8738-0be9-f592914732f3
##WORKING    : 15.0 mm
##DET_NAME   : EDAX All
##DET_MODE   : MediumLE
#SPECTRUM    :
28,
322,
11605,
12020,
44717,
3772,
3976,
4782,
3783,
4177,
4604,
5523,
46504,
23217,
3909,
4052,
4322,
4114,
4076,
4325,
4202,
3978,
3953,
3848,
3721,
3742,
3319,
3332,
4541,
3468,
3413,
6387,
80518,
7158,
11190,
19338,
4635,
9094,
2409,
3226,
3420,
2674,
2406,
2022,
1818,
1889,
1949,
1662,
1578,
1562,
1517,
1536,
1488,
1451,
1485,
1339,
1357,
1253,
1266,
1211,
1186,
1148,
1148,
1101,
1134,
1045,
1012,
995,
955,
940,
875,
852,
804,
793,
784,
760,
716,
702,
715,
689,
639,
581,
593,
565,
551,
544,
508,
516,
510,
436,
450,
422,
411,
379,
373,
358,
350,
290,
297,
285,
243,
289,
272,
222,
251,
205,
197,
174,
181,
169,
180,
152,
145,
147,
134,
122,
132,
104,
101,
93,
87,
81,
83,
58,
82,
70,
50,
60,
51,
43,
47,
34,
32,
25,
24,
19,
21,
15,
15,
19,
12,
9,
3,
2,
1,
1,
1,
1,
1,
2,
0,
2,
0,
0,
2,
0,
0,
2,
0,
0,
0,
0,
0,
0,
0,
0,
2,
0,
0,
0,
0,
0,
0,
0,
0,
1,
0,
0,
0,
0,
1,
0,
0,
0,
0,
0,
0,
0,
0,
0,
0,
0,
0,
0,
0,
0,
0,
0,
0,
0,
0,
0,
0,
0,
0,
0,
0,
0,
0,
0,
0,
0,
0,
0,
0,
0,
0,
0,
0,
0,
0,
0,
0,
0,
0,
0,
0,
0,
0,
0,
0,
0,
0,
0,
0,
0,
0,
0,
0,
0,
0,
0,
0,
0,
0,
0,
0,
0,
0,
0,
0,
0,
0,
0,
0,
0,
0,
0,
0,
0,
0,
0,
0,
0,
0,
0,
0,
0,
0,
0,
0,
0,
0,
0,
0,
0,
0,
0,
0,
0,
0,
0,
0,
0,
0,
0,
0,
0,
0,
0,
0,
0,
0,
0,
#ENDOFDATA   :

File: SPI MM1 Benitoite[5][4].msa
#FORMAT      : EMSA/MAS Spectral Data File
#VERSION     : 1.0
#TITLE       : SPI MM1 Benitoite[5][all]
#DATE        : 11-MAR-2025
#TIME        : 13:22
#OWNER       : Unknown
#NPOINTS     : 4096
#NCOLUMNS    : 1
#XUNITS      : eV
#YUNITS      : counts
#DATATYPE    : Y
#XPERCHAN    : 9.99778
#OFFSET      : 1.69135
#BEAMKV      : 20
#SIGNALTYPE  : EDS
#ELEVANGLE   : 35
#AZIMANGLE   : 0
#LIVETIME    : 239.907
#REALTIME    : 256.805
#PROBECUR    : 1.02853
#TAUWIND     : 0
#TDEADLYR    : 0
#TACTLYR     : 0.045
#TALWIND     : 0.025
#CHOFFSET    : 0.0
#XLABEL      : Energy (eV)
#YLABEL      : Counts
#XPOSITION   : -3.35288
#YPOSITION   : -4.91165
#ZPOSITION   : 30.9284
#EDSDET      : SD
##SPECIMEN   : SPI MM1 Benitoite[5][all]
##D2STDCMP   : Benitoite,(O:34.828),(Si:20.3791),(Ti:11.5776),(Ba:33.2153)
##DET_HASH   : 12273538-fd48-a23f-0a19-f1e6fa85caef
##CALIB_HASH : 6abaa72c-aa41-8738-0be9-f592914732f3
##WORKING    : 15.0 mm
##DET_NAME   : EDAX All
##DET_MODE   : MediumLE
#SPECTRUM    :
33,
262,
11596,
12021,
44656,
3633,
4018,
4874,
3763,
4113,
4662,
5539,
46274,
23245,
3811,
4032,
4229,
4066,
4067,
4244,
4154,
3808,
3954,
3671,
3761,
3646,
3474,
3282,
4665,
3436,
3236,
6396,
80417,
7124,
11341,
19471,
4671,
9027,
2414,
3400,
3415,
2706,
2408,
1940,
1850,
1896,
1989,
1723,
1600,
1548,
1563,
1497,
1502,
1506,
1448,
1317,
1336,
1330,
1294,
1276,
1143,
1181,
1110,
1079,
1132,
1064,
981,
1013,
948,
960,
882,
845,
842,
762,
756,
750,
702,
754,
731,
669,
643,
584,
605,
580,
557,
516,
515,
478,
477,
479,
413,
445,
397,
369,
376,
345,
326,
334,
307,
281,
286,
280,
245,
244,
243,
230,
186,
207,
200,
195,
157,
153,
152,
138,
131,
126,
116,
112,
105,
104,
97,
81,
81,
70,
67,
67,
61,
56,
51,
47,
44,
40,
35,
23,
30,
21,
19,
16,
15,
12,
6,
6,
3,
4,
0,
0,
1,
0,
2,
2,
0,
0,
0,
0,
0,
0,
2,
0,
0,
0,
1,
0,
1,
0,
0,
0,
0,
0,
0,
0,
0,
1,
0,
0,
0,
0,
0,
0,
0,
0,
0,
0,
0,
0,
0,
0,
0,
0,
0,
0,
0,
0,
0,
0,
0,
0,
0,
0,
0,
0,
0,
0,
0,
0,
0,
0,
0,
0,
0,
0,
0,
0,
0,
0,
0,
0,
0,
0,
0,
0,
0,
0,
0,
0,
0,
0,
0,
0,
0,
0,
0,
0,
0,
0,
0,
0,
0,
0,
0,
0,
0,
0,
0,
0,
0,
0,
0,
0,
0,
0,
0,
0,
0,
0,
0,
0,
0,
0,
0,
0,
0,
0,
0,
0,
0,
0,
0,
0,
0,
0,
0,
0,
0,
0,
0,
0,
0,
0,
0,
0,
0,
0,
0,
0,
0,
0,
0,
0,
0,
0,
0,
0,
0,
0,
#ENDOFDATA   :

File: SPI MM1 Benitoite[7][4].msa
#FORMAT      : EMSA/MAS Spectral Data File
#VERSION     : 1.0
#TITLE       : SPI MM1 Benitoite[7][all]
#DATE        : 11-MAR-2025
#TIME        : 13:24
#OWNER       : Unknown
#NPOINTS     : 4096
#NCOLUMNS    : 1
#XUNITS      : eV
#YUNITS      : counts
#DATATYPE    : Y
#XPERCHAN    : 9.99778
#OFFSET      : 1.69135
#BEAMKV      : 20
#SIGNALTYPE  : EDS
#ELEVANGLE   : 35
#AZIMANGLE   : 0
#LIVETIME    : 239.8495
#REALTIME    : 256.741
#PROBECUR    : 1.02853
#TAUWIND     : 0
#TDEADLYR    : 0
#TACTLYR     : 0.045
#TALWIND     : 0.025
#CHOFFSET    : 0.0
#XLABEL      : Energy (eV)
#YLABEL      : Counts
#XPOSITION   : -3.26161
#YPOSITION   : -4.84117
#ZPOSITION   : 30.9284
#EDSDET      : SD
##SPECIMEN   : SPI MM1 Benitoite[7][all]
##D2STDCMP   : Benitoite,(O:34.828),(Si:20.3791),(Ti:11.5776),(Ba:33.2153)
##DET_HASH   : 12273538-fd48-a23f-0a19-f1e6fa85caef
##CALIB_HASH : 6abaa72c-aa41-8738-0be9-f592914732f3
##WORKING    : 15.0 mm
##DET_NAME   : EDAX All
##DET_MODE   : MediumLE
#SPECTRUM    :
30,
293,
11494,
12031,
44416,
3682,
4064,
4709,
3946,
4103,
4661,
5395,
46315,
23292,
3905,
3893,
4408,
4100,
4063,
4193,
4262,
3833,
4025,
3731,
3713,
3700,
3443,
3471,
4591,
3532,
3260,
6416,
80041,
7201,
11475,
19137,
4643,
8899,
2430,
3383,
3480,
2767,
2380,
1884,
1782,
1912,
1951,
1700,
1596,
1564,
1566,
1531,
1446,
1488,
1419,
1377,
1249,
1199,
1271,
1237,
1180,
1171,
1129,
1141,
1132,
1094,
947,
937,
979,
971,
928,
904,
829,
791,
791,
778,
748,
746,
719,
694,
626,
598,
576,
580,
550,
536,
488,
529,
488,
422,
437,
426,
415,
420,
413,
371,
341,
324,
317,
313,
294,
263,
259,
223,
262,
211,
200,
194,
205,
161,
168,
162,
140,
135,
139,
119,
114,
118,
100,
86,
78,
78,
81,
68,
75,
51,
68,
57,
48,
54,
48,
30,
32,
17,
21,
23,
12,
24,
18,
9,
13,
7,
1,
0,
2,
0,
0,
2,
0,
1,
1,
0,
3,
0,
0,
3,
2,
1,
0,
1,
0,
0,
0,
0,
0,
0,
1,
0,
1,
0,
0,
0,
0,
1,
1,
0,
0,
0,
0,
0,
0,
0,
0,
0,
0,
0,
0,
0,
0,
0,
0,
0,
0,
0,
0,
0,
0,
0,
0,
0,
0,
1,
0,
0,
0,
0,
0,
0,
0,
0,
0,
0,
0,
0,
0,
0,
0,
0,
0,
0,
0,
0,
0,
0,
0,
0,
0,
0,
0,
0,
0,
0,
0,
0,
0,
0,
0,
0,
0,
0,
0,
0,
0,
1,
0,
0,
0,
0,
0,
0,
0,
0,
0,
0,
0,
0,
0,
0,
0,
0,
0,
0,
0,
0,
0,
0,
0,
0,
0,
0,
0,
0,
0,
0,
0,
0,
0,
0,
0,
0,
0,
0,
0,
0,
0,
0,
0,
0,
0,
0,
0,
0,
0,
0,
#ENDOFDATA   :