Folder: spex_quant/N132962/Quantification/20 keV/MMM1 (part 2)

File: SPI MM1 Andradite[6][4].msa
#FORMAT      : EMSA/MAS Spectral Data File
#VERSION     : 1.0
#TITLE       : SPI MM1 Andradite[6][all]
#DATE        : 11-MAR-2025
#TIME        : 13:13
#OWNER       : Unknown
#NPOINTS     : 4096
#NCOLUMNS    : 1
#XUNITS      : eV
#YUNITS      : counts
#DATATYPE    : Y
#XPERCHAN    : 9.99778
#OFFSET      : 1.69135
#BEAMKV      : 20
#SIGNALTYPE  : EDS
#ELEVANGLE   : 35
#AZIMANGLE   : 0
#LIVETIME    : 239.886
#REALTIME    : 255.404
#PROBECUR    : 1.02699
#TAUWIND     : 0
#TDEADLYR    : 0
#TACTLYR     : 0.045
#TALWIND     : 0.025
#CHOFFSET    : 0.0
#XLABEL      : Energy (eV)
#YLABEL      : Counts
#XPOSITION   : -2.19067
#YPOSITION   : -7.9886
#ZPOSITION   : 30.9284
#EDSDET      : SD
##SPECIMEN   : SPI MM1 Andradite[6][all]
##D2STDCMP   : Andradite,(O:37.7805),(Si:16.5802),(Ca:23.6603),(Fe:21.979),3.86
##DET_HASH   : 12273538-fd48-a23f-0a19-f1e6fa85caef
##CALIB_HASH : 6abaa72c-aa41-8738-0be9-f592914732f3
##WORKING    : 15.0 mm
##DET_NAME   : EDAX All
##DET_MODE   : MediumLE
#SPECTRUM    :
25,
215,
12738,
3967,
31365,
13972,
2551,
2758,
3407,
4088,
5526,
11056,
42832,
21277,
4543,
3452,
3695,
3387,
3220,
3332,
3237,
3081,
3035,
3080,
2803,
3400,
61929,
21191,
4944,
10951,
2109,
1958,
1975,
1931,
1864,
1683,
1781,
1666,
1679,
1797,
1526,
1494,
2048,
1486,
1441,
9307,
26276,
1541,
1255,
1290,
4122,
2558,
976,
1076,
999,
901,
853,
830,
844,
819,
771,
718,
745,
694,
667,
679,
639,
617,
621,
565,
605,
548,
591,
538,
497,
488,
473,
459,
442,
410,
401,
361,
334,
355,
367,
348,
323,
286,
309,
298,
291,
257,
251,
227,
235,
217,
215,
203,
162,
175,
183,
137,
159,
131,
144,
119,
126,
107,
99,
113,
105,
77,
71,
75,
64,
66,
70,
51,
69,
46,
64,
46,
45,
45,
32,
32,
37,
38,
26,
26,
17,
21,
15,
14,
14,
7,
11,
7,
7,
6,
3,
2,
1,
0,
1,
0,
0,
0,
0,
1,
0,
1,
0,
0,
1,
0,
0,
0,
1,
0,
0,
0,
0,
0,
0,
0,
0,
0,
1,
0,
0,
0,
0,
0,
0,
0,
0,
1,
0,
0,
0,
0,
0,
0,
0,
0,
0,
0,
0,
0,
0,
0,
0,
0,
0,
0,
0,
0,
0,
0,
0,
0,
0,
0,
0,
0,
0,
0,
0,
0,
0,
0,
0,
0,
0,
0,
0,
0,
0,
0,
0,
0,
0,
0,
0,
0,
0,
0,
0,
0,
0,
0,
0,
0,
0,
0,
0,
0,
0,
0,
0,
0,
0,
0,
0,
0,
0,
0,
0,
0,
0,
0,
0,
0,
0,
0,
0,
0,
0,
0,
0,
0,
0,
0,
0,
0,
0,
0,
0,
0,
0,
0,
0,
0,
0,
0,
0,
0,
0,
0,
0,
0,
0,
0,
0,
0,
0,
0,
0,
0,
0,
0,
0,
0,
#ENDOFDATA   :

File: SPI MM1 Andradite[7][4].msa
#FORMAT      : EMSA/MAS Spectral Data File
#VERSION     : 1.0
#TITLE       : SPI MM1 Andradite[7][all]
#DATE        : 11-MAR-2025
#TIME        : 13:15
#OWNER       : Unknown
#NPOINTS     : 4096
#NCOLUMNS    : 1
#XUNITS      : eV
#YUNITS      : counts
#DATATYPE    : Y
#XPERCHAN    : 9.99778
#OFFSET      : 1.69135
#BEAMKV      : 20
#SIGNALTYPE  : EDS
#ELEVANGLE   : 35
#AZIMANGLE   : 0
#LIVETIME    : 239.8832
#REALTIME    : 255.398
#PROBECUR    : 1.02699
#TAUWIND     : 0
#TDEADLYR    : 0
#TACTLYR     : 0.045
#TALWIND     : 0.025
#CHOFFSET    : 0.0
#XLABEL      : Energy (eV)
#YLABEL      : Counts
#XPOSITION   : -2.21484
#YPOSITION   : -8.00899
#ZPOSITION   : 30.9284
#EDSDET      : SD
##SPECIMEN   : SPI MM1 Andradite[7][all]
##D2STDCMP   : Andradite,(O:37.7805),(Si:16.5802),(Ca:23.6603),(Fe:21.979),3.86
##DET_HASH   : 12273538-fd48-a23f-0a19-f1e6fa85caef
##CALIB_HASH : 6abaa72c-aa41-8738-0be9-f592914732f3
##WORKING    : 15.0 mm
##DET_NAME   : EDAX All
##DET_MODE   : MediumLE
#SPECTRUM    :
27,
194,
12845,
4035,
31418,
14067,
2507,
2828,
3343,
3937,
5560,
11007,
42403,
21087,
4642,
3187,
3791,
3414,
3300,
3276,
3185,
3172,
2988,
3001,
2857,
3282,
61765,
21113,
5012,
11155,
2137,
1931,
1977,
2063,
1892,
1764,
1671,
1713,
1648,
1673,
1483,
1508,
2006,
1363,
1469,
9325,
26404,
1556,
1214,
1291,
3959,
2526,
999,
1017,
1005,
926,
911,
802,
891,
811,
699,
721,
704,
734,
665,
657,
639,
616,
647,
633,
564,
517,
595,
560,
509,
463,
442,
443,
455,
413,
407,
372,
344,
351,
334,
332,
352,
295,
305,
284,
273,
261,
265,
232,
209,
195,
197,
172,
169,
177,
157,
151,
139,
152,
121,
141,
130,
109,
102,
91,
121,
89,
75,
70,
65,
61,
77,
65,
53,
43,
52,
47,
37,
29,
39,
30,
38,
28,
17,
33,
19,
23,
13,
13,
8,
10,
11,
8,
9,
10,
5,
0,
1,
0,
0,
0,
0,
2,
0,
0,
0,
0,
1,
0,
0,
0,
0,
0,
0,
0,
0,
0,
0,
0,
0,
0,
0,
0,
1,
0,
0,
0,
0,
0,
0,
0,
0,
0,
0,
0,
0,
0,
0,
1,
0,
0,
0,
0,
0,
0,
0,
0,
0,
0,
0,
0,
0,
0,
0,
0,
0,
0,
0,
0,
0,
0,
0,
1,
0,
0,
0,
0,
0,
0,
0,
0,
0,
0,
0,
0,
0,
0,
0,
0,
0,
0,
0,
0,
0,
0,
0,
0,
0,
0,
0,
0,
0,
0,
0,
0,
0,
0,
0,
0,
0,
0,
0,
0,
0,
0,
0,
0,
0,
0,
0,
0,
0,
0,
0,
0,
0,
0,
0,
0,
0,
0,
0,
0,
0,
0,
0,
0,
0,
0,
0,
0,
0,
0,
0,
0,
0,
0,
0,
0,
0,
0,
0,
0,
0,
0,
0,
0,
0,
0,
#ENDOFDATA   :

File: SPI MM1 Anhydrite[1][4].msa
#FORMAT      : EMSA/MAS Spectral Data File
#VERSION     : 1.0
#TITLE       : SPI MM1 Anhydrite[1][all]
#DATE        : 11-MAR-2025
#TIME        : 13:45
#OWNER       : Unknown
#NPOINTS     : 4096
#NCOLUMNS    : 1
#XUNITS      : eV
#YUNITS      : counts
#DATATYPE    : Y
#XPERCHAN    : 9.99778
#OFFSET      : 1.69135
#BEAMKV      : 20
#SIGNALTYPE  : EDS
#ELEVANGLE   : 35
#AZIMANGLE   : 0
#LIVETIME    : 239.855
#REALTIME    : 255.018
#PROBECUR    : 1.02853
#TAUWIND     : 0
#TDEADLYR    : 0
#TACTLYR     : 0.045
#TALWIND     : 0.025
#CHOFFSET    : 0.0
#XLABEL      : Energy (eV)
#YLABEL      : Counts
#XPOSITION   : 4.98272
#YPOSITION   : -5.00329
#ZPOSITION   : 30.9284
#EDSDET      : SD
##SPECIMEN   : SPI MM1 Anhydrite[1][all]
##D2STDCMP   : Anhydrite,(O:47.0085),(S:23.5529),(Ca:29.4387),5.0
##DET_HASH   : 12273538-fd48-a23f-0a19-f1e6fa85caef
##CALIB_HASH : 6abaa72c-aa41-8738-0be9-f592914732f3
##WORKING    : 15.0 mm
##DET_NAME   : EDAX All
##DET_MODE   : MediumLE
#SPECTRUM    :
23,
675,
11920,
3225,
30564,
2356,
2700,
2991,
3544,
4093,
4412,
4705,
4843,
7200,
5891,
4612,
49381,
42193,
7125,
2743,
2952,
2679,
2643,
2511,
2432,
2987,
71737,
24454,
5032,
12364,
1797,
1616,
1593,
1729,
1583,
1533,
1485,
1473,
1344,
1330,
1268,
1206,
1219,
1368,
1133,
1133,
1165,
1085,
990,
899,
951,
943,
913,
1035,
890,
848,
782,
703,
688,
748,
702,
660,
647,
602,
601,
588,
575,
572,
513,
541,
487,
517,
501,
452,
439,
399,
382,
385,
375,
354,
385,
336,
315,
301,
310,
278,
234,
264,
257,
233,
214,
218,
181,
211,
174,
200,
192,
172,
152,
134,
160,
155,
144,
130,
121,
99,
95,
102,
84,
93,
73,
72,
62,
59,
58,
50,
67,
53,
51,
49,
35,
37,
46,
44,
31,
37,
25,
25,
26,
20,
19,
14,
9,
8,
14,
10,
7,
9,
7,
5,
0,
1,
0,
0,
1,
1,
0,
0,
0,
1,
0,
0,
0,
0,
0,
0,
0,
0,
0,
0,
0,
0,
0,
0,
0,
0,
0,
0,
0,
0,
0,
0,
0,
0,
0,
0,
0,
0,
0,
0,
0,
0,
0,
0,
0,
0,
0,
0,
0,
0,
0,
0,
0,
1,
0,
0,
0,
0,
0,
0,
0,
0,
0,
0,
0,
0,
0,
0,
0,
0,
0,
0,
0,
0,
0,
0,
0,
0,
0,
0,
0,
0,
0,
0,
0,
0,
0,
0,
0,
0,
0,
0,
0,
0,
0,
0,
0,
0,
0,
0,
0,
0,
0,
0,
0,
0,
0,
0,
0,
0,
0,
0,
0,
0,
0,
0,
0,
0,
0,
0,
0,
0,
0,
0,
0,
0,
0,
0,
0,
0,
0,
0,
0,
0,
0,
0,
0,
0,
0,
0,
0,
0,
0,
0,
0,
0,
0,
0,
0,
0,
0,
0,
0,
0,
#ENDOFDATA   :

File: SPI MM1 Anhydrite[2][4].msa
#FORMAT      : EMSA/MAS Spectral Data File
#VERSION     : 1.0
#TITLE       : SPI MM1 Anhydrite[2][all]
#DATE        : 11-MAR-2025
#TIME        : 13:46
#OWNER       : Unknown
#NPOINTS     : 4096
#NCOLUMNS    : 1
#XUNITS      : eV
#YUNITS      : counts
#DATATYPE    : Y
#XPERCHAN    : 9.99778
#OFFSET      : 1.69135
#BEAMKV      : 20
#SIGNALTYPE  : EDS
#ELEVANGLE   : 35
#AZIMANGLE   : 0
#LIVETIME    : 239.885
#REALTIME    : 255.076
#PROBECUR    : 1.02853
#TAUWIND     : 0
#TDEADLYR    : 0
#TACTLYR     : 0.045
#TALWIND     : 0.025
#CHOFFSET    : 0.0
#XLABEL      : Energy (eV)
#YLABEL      : Counts
#XPOSITION   : 4.99912
#YPOSITION   : -5.10008
#ZPOSITION   : 30.9284
#EDSDET      : SD
##SPECIMEN   : SPI MM1 Anhydrite[2][all]
##D2STDCMP   : Anhydrite,(O:47.0085),(S:23.5529),(Ca:29.4387),5.0
##DET_HASH   : 12273538-fd48-a23f-0a19-f1e6fa85caef
##CALIB_HASH : 6abaa72c-aa41-8738-0be9-f592914732f3
##WORKING    : 15.0 mm
##DET_NAME   : EDAX All
##DET_MODE   : MediumLE
#SPECTRUM    :
20,
687,
11644,
3396,
30906,
2222,
2635,
2997,
3619,
4147,
4546,
4643,
5130,
7208,
5940,
4584,
49493,
42128,
6959,
2722,
2792,
2620,
2621,
2589,
2372,
2930,
71416,
24516,
4993,
12488,
1797,
1635,
1608,
1772,
1491,
1467,
1460,
1428,
1348,
1310,
1295,
1222,
1320,
1480,
1168,
1167,
1163,
1025,
1037,
925,
985,
941,
882,
982,
818,
835,
777,
777,
770,
702,
670,
627,
686,
595,
585,
565,
587,
521,
545,
550,
526,
483,
443,
482,
447,
422,
414,
374,
365,
331,
340,
353,
315,
306,
285,
284,
267,
284,
263,
236,
226,
230,
209,
177,
191,
194,
164,
168,
115,
131,
154,
160,
134,
127,
112,
92,
103,
88,
90,
82,
68,
78,
69,
62,
68,
66,
64,
59,
48,
40,
34,
50,
39,
27,
27,
27,
22,
30,
34,
17,
9,
18,
17,
16,
10,
9,
6,
7,
5,
6,
1,
1,
0,
0,
0,
0,
0,
0,
0,
0,
0,
0,
0,
0,
0,
0,
1,
0,
0,
0,
1,
0,
0,
0,
0,
0,
0,
0,
0,
0,
0,
0,
0,
0,
0,
0,
0,
0,
0,
0,
0,
0,
0,
0,
0,
0,
0,
0,
0,
0,
0,
0,
0,
0,
0,
0,
0,
0,
0,
0,
0,
0,
0,
0,
0,
0,
0,
0,
0,
0,
0,
0,
0,
0,
0,
0,
0,
0,
0,
0,
0,
0,
0,
0,
0,
0,
0,
0,
0,
0,
0,
0,
0,
0,
0,
0,
0,
0,
0,
0,
0,
0,
0,
0,
0,
0,
0,
0,
0,
0,
0,
0,
0,
0,
0,
0,
0,
0,
0,
0,
0,
0,
0,
0,
0,
0,
0,
0,
0,
0,
0,
0,
0,
0,
0,
0,
0,
0,
0,
0,
0,
0,
0,
0,
0,
0,
0,
0,
0,
0,
0,
0,
0,
0,
#ENDOFDATA   :

File: SPI MM1 Anhydrite[3][4].msa
#FORMAT      : EMSA/MAS Spectral Data File
#VERSION     : 1.0
#TITLE       : SPI MM1 Anhydrite[3][all]
#DATE        : 11-MAR-2025
#TIME        : 13:47
#OWNER       : Unknown
#NPOINTS     : 4096
#NCOLUMNS    : 1
#XUNITS      : eV
#YUNITS      : counts
#DATATYPE    : Y
#XPERCHAN    : 9.99778
#OFFSET      : 1.69135
#BEAMKV      : 20
#SIGNALTYPE  : EDS
#ELEVANGLE   : 35
#AZIMANGLE   : 0
#LIVETIME    : 239.8332
#REALTIME    : 255.025
#PROBECUR    : 1.02853
#TAUWIND     : 0
#TDEADLYR    : 0
#TACTLYR     : 0.045
#TALWIND     : 0.025
#CHOFFSET    : 0.0
#XLABEL      : Energy (eV)
#YLABEL      : Counts
#XPOSITION   : 4.94344
#YPOSITION   : -5.01385
#ZPOSITION   : 30.9284
#EDSDET      : SD
##SPECIMEN   : SPI MM1 Anhydrite[3][all]
##D2STDCMP   : Anhydrite,(O:47.0085),(S:23.5529),(Ca:29.4387),5.0
##DET_HASH   : 12273538-fd48-a23f-0a19-f1e6fa85caef
##CALIB_HASH : 6abaa72c-aa41-8738-0be9-f592914732f3
##WORKING    : 15.0 mm
##DET_NAME   : EDAX All
##DET_MODE   : MediumLE
#SPECTRUM    :
32,
676,
11735,
3400,
30467,
2292,
2617,
3067,
3572,
4118,
4543,
4669,
5004,
7283,
5862,
4604,
49042,
41878,
7054,
2752,
2870,
2668,
2516,
2497,
2491,
3018,
71468,
24211,
5047,
12259,
1806,
1648,
1587,
1721,
1524,
1505,
1482,
1435,
1380,
1368,
1302,
1232,
1264,
1437,
1093,
1202,
1162,
1020,
996,
981,
922,
1003,
900,
982,
874,
827,
796,
781,
742,
673,
672,
616,
671,
624,
631,
602,
565,
501,
535,
549,
519,
479,
429,
461,
444,
406,
394,
394,
360,
341,
365,
322,
308,
284,
277,
279,
285,
283,
235,
237,
229,
240,
214,
193,
198,
191,
176,
191,
154,
132,
122,
159,
134,
121,
123,
115,
118,
95,
81,
86,
86,
74,
83,
65,
64,
59,
44,
47,
54,
45,
45,
43,
35,
28,
34,
32,
29,
17,
25,
16,
20,
14,
15,
19,
11,
9,
13,
6,
7,
6,
1,
1,
0,
1,
1,
0,
0,
0,
1,
2,
0,
0,
0,
0,
0,
0,
0,
0,
0,
0,
0,
0,
0,
0,
0,
0,
0,
0,
0,
0,
0,
0,
0,
0,
0,
0,
0,
0,
0,
0,
0,
0,
0,
0,
0,
0,
0,
0,
0,
0,
0,
0,
0,
0,
0,
0,
0,
0,
0,
0,
0,
0,
0,
0,
0,
0,
0,
0,
0,
0,
0,
0,
0,
0,
0,
0,
0,
0,
0,
0,
0,
0,
0,
0,
0,
0,
0,
0,
0,
0,
0,
0,
0,
0,
0,
0,
0,
0,
0,
0,
0,
0,
0,
0,
0,
0,
0,
0,
0,
0,
0,
0,
0,
0,
0,
0,
0,
0,
0,
0,
0,
0,
0,
0,
0,
0,
0,
0,
0,
0,
0,
0,
0,
0,
0,
0,
0,
0,
0,
0,
0,
0,
0,
0,
0,
0,
0,
0,
0,
0,
0,
0,
0,
0,
#ENDOFDATA   :

File: SPI MM1 Anhydrite[4][4].msa
#FORMAT      : EMSA/MAS Spectral Data File
#VERSION     : 1.0
#TITLE       : SPI MM1 Anhydrite[4][all]
#DATE        : 11-MAR-2025
#TIME        : 13:48
#OWNER       : Unknown
#NPOINTS     : 4096
#NCOLUMNS    : 1
#XUNITS      : eV
#YUNITS      : counts
#DATATYPE    : Y
#XPERCHAN    : 9.99778
#OFFSET      : 1.69135
#BEAMKV      : 20
#SIGNALTYPE  : EDS
#ELEVANGLE   : 35
#AZIMANGLE   : 0
#LIVETIME    : 239.884
#REALTIME    : 255.076
#PROBECUR    : 1.02853
#TAUWIND     : 0
#TDEADLYR    : 0
#TACTLYR     : 0.045
#TALWIND     : 0.025
#CHOFFSET    : 0.0
#XLABEL      : Energy (eV)
#YLABEL      : Counts
#XPOSITION   : 5.02286
#YPOSITION   : -5.00723
#ZPOSITION   : 30.9284
#EDSDET      : SD
##SPECIMEN   : SPI MM1 Anhydrite[4][all]
##D2STDCMP   : Anhydrite,(O:47.0085),(S:23.5529),(Ca:29.4387),5.0
##DET_HASH   : 12273538-fd48-a23f-0a19-f1e6fa85caef
##CALIB_HASH : 6abaa72c-aa41-8738-0be9-f592914732f3
##WORKING    : 15.0 mm
##DET_NAME   : EDAX All
##DET_MODE   : MediumLE
#SPECTRUM    :
23,
687,
11842,
3271,
30521,
2277,
2619,
2988,
3603,
3980,
4428,
4817,
4979,
7258,
5861,
4601,
49210,
42018,
7047,
2714,
2752,
2736,
2554,
2543,
2443,
2965,
71740,
24157,
4937,
12193,
1859,
1684,
1663,
1691,
1439,
1512,
1452,
1440,
1398,
1345,
1307,
1272,
1228,
1412,
1156,
1207,
1176,
1004,
960,
1004,
967,
938,
930,
977,
838,
837,
738,
759,
788,
724,
686,
686,
650,
644,
629,
595,
586,
591,
539,
488,
530,
484,
487,
483,
411,
419,
426,
427,
361,
329,
371,
329,
331,
329,
290,
292,
274,
237,
232,
209,
215,
219,
190,
164,
180,
180,
162,
163,
137,
138,
140,
127,
122,
123,
101,
119,
108,
95,
80,
87,
71,
81,
75,
63,
70,
60,
59,
49,
55,
39,
37,
42,
36,
23,
32,
21,
20,
15,
24,
11,
9,
19,
12,
14,
10,
7,
12,
5,
3,
3,
5,
4,
2,
0,
0,
1,
0,
0,
0,
0,
0,
0,
0,
0,
1,
0,
0,
0,
0,
0,
0,
0,
0,
0,
0,
0,
0,
0,
0,
0,
0,
0,
0,
0,
0,
0,
0,
0,
0,
1,
0,
0,
0,
0,
0,
0,
0,
0,
0,
0,
0,
0,
0,
0,
0,
0,
0,
0,
0,
0,
0,
0,
0,
0,
0,
0,
0,
0,
0,
0,
0,
0,
0,
0,
0,
0,
0,
0,
0,
0,
0,
0,
0,
0,
0,
0,
0,
0,
0,
0,
0,
0,
0,
0,
0,
0,
0,
0,
0,
0,
0,
0,
0,
0,
0,
0,
0,
0,
0,
0,
0,
0,
0,
0,
0,
0,
0,
0,
0,
0,
0,
0,
0,
0,
0,
0,
0,
0,
0,
0,
0,
0,
0,
0,
0,
0,
0,
0,
0,
0,
0,
0,
0,
0,
0,
0,
0,
0,
0,
0,
0,
0,
0,
0,
#ENDOFDATA   :

File: SPI MM1 Anhydrite[6][4].msa
#FORMAT      : EMSA/MAS Spectral Data File
#VERSION     : 1.0
#TITLE       : SPI MM1 Anhydrite[6][all]
#DATE        : 11-MAR-2025
#TIME        : 13:51
#OWNER       : Unknown
#NPOINTS     : 4096
#NCOLUMNS    : 1
#XUNITS      : eV
#YUNITS      : counts
#DATATYPE    : Y
#XPERCHAN    : 9.99778
#OFFSET      : 1.69135
#BEAMKV      : 20
#SIGNALTYPE  : EDS
#ELEVANGLE   : 35
#AZIMANGLE   : 0
#LIVETIME    : 239.872
#REALTIME    : 255.077
#PROBECUR    : 1.02902
#TAUWIND     : 0
#TDEADLYR    : 0
#TACTLYR     : 0.045
#TALWIND     : 0.025
#CHOFFSET    : 0.0
#XLABEL      : Energy (eV)
#YLABEL      : Counts
#XPOSITION   : 4.94911
#YPOSITION   : -5.0649
#ZPOSITION   : 30.9284
#EDSDET      : SD
##SPECIMEN   : SPI MM1 Anhydrite[6][all]
##D2STDCMP   : Anhydrite,(O:47.0085),(S:23.5529),(Ca:29.4387),5.0
##DET_HASH   : 12273538-fd48-a23f-0a19-f1e6fa85caef
##CALIB_HASH : 6abaa72c-aa41-8738-0be9-f592914732f3
##WORKING    : 15.0 mm
##DET_NAME   : EDAX All
##DET_MODE   : MediumLE
#SPECTRUM    :
17,
702,
11724,
3277,
30404,
2277,
2781,
3086,
3532,
4052,
4525,
4782,
5006,
7210,
5965,
4559,
49225,
42355,
7099,
2858,
2885,
2630,
2617,
2554,
2480,
2975,
71761,
24495,
5133,
12320,
1904,
1672,
1572,
1666,
1599,
1480,
1407,
1437,
1345,
1442,
1343,
1335,
1248,
1375,
1181,
1220,
1192,
1006,
926,
941,
947,
906,
919,
922,
895,
744,
774,
769,
716,
680,
643,
658,
631,
624,
601,
575,
565,
534,
534,
526,
490,
520,
437,
464,
454,
383,
408,
383,
354,
334,
356,
327,
298,
326,
305,
241,
256,
260,
233,
246,
252,
221,
223,
204,
188,
180,
153,
141,
162,
156,
158,
149,
140,
122,
108,
99,
106,
99,
107,
97,
73,
75,
70,
74,
59,
62,
57,
56,
44,
47,
54,
44,
35,
30,
32,
20,
26,
27,
18,
23,
18,
13,
9,
6,
11,
8,
5,
8,
6,
4,
6,
3,
0,
0,
0,
0,
1,
0,
1,
0,
0,
0,
0,
1,
0,
0,
0,
0,
0,
1,
0,
0,
0,
0,
0,
0,
0,
0,
0,
0,
1,
0,
0,
0,
0,
0,
0,
0,
0,
0,
0,
0,
0,
0,
0,
0,
0,
0,
0,
0,
0,
0,
0,
0,
0,
0,
0,
0,
0,
0,
0,
0,
0,
0,
0,
0,
0,
0,
0,
0,
0,
0,
0,
0,
0,
0,
0,
0,
0,
0,
0,
0,
0,
0,
0,
0,
0,
0,
0,
0,
0,
0,
0,
0,
0,
0,
0,
0,
0,
0,
0,
0,
0,
0,
0,
0,
0,
0,
0,
0,
0,
0,
0,
0,
0,
0,
0,
0,
0,
0,
0,
0,
0,
0,
0,
0,
0,
0,
0,
0,
0,
0,
0,
0,
0,
0,
0,
0,
0,
0,
0,
0,
0,
0,
0,
0,
0,
0,
0,
0,
0,
0,
0,
0,
#ENDOFDATA   :

File: SPI MM1 Arsenopyrite[0][4].msa
#FORMAT      : EMSA/MAS Spectral Data File
#VERSION     : 1.0
#TITLE       : SPI MM1 Arsenopyrite[0][all]
#DATE        : 11-MAR-2025
#TIME        : 13:34
#OWNER       : Unknown
#NPOINTS     : 4096
#NCOLUMNS    : 1
#XUNITS      : eV
#YUNITS      : counts
#DATATYPE    : Y
#XPERCHAN    : 9.99778
#OFFSET      : 1.69135
#BEAMKV      : 20
#SIGNALTYPE  : EDS
#ELEVANGLE   : 35
#AZIMANGLE   : 0
#LIVETIME    : 239.821
#REALTIME    : 260.7888
#PROBECUR    : 1.02853
#TAUWIND     : 0
#TDEADLYR    : 0
#TACTLYR     : 0.045
#TALWIND     : 0.025
#CHOFFSET    : 0.0
#XLABEL      : Energy (eV)
#YLABEL      : Counts
#XPOSITION   : 2.16622
#YPOSITION   : -5.01231
#ZPOSITION   : 30.9284
#EDSDET      : SD
##SPECIMEN   : SPI MM1 Arsenopyrite[0][all]
##D2STDCMP   : Arsenopyrite,(S:19.6897),(Fe:34.2972),(As:46.0131),6.0
##DET_HASH   : 12273538-fd48-a23f-0a19-f1e6fa85caef
##CALIB_HASH : 6abaa72c-aa41-8738-0be9-f592914732f3
##WORKING    : 15.0 mm
##DET_NAME   : EDAX All
##DET_MODE   : MediumLE
#SPECTRUM    :
20,
381,
11463,
3390,
11156,
57617,
4968,
5532,
14849,
147571,
10659,
4317,
4556,
4819,
4669,
4917,
33174,
26655,
7701,
4280,
4165,
4153,
4125,
4144,
3919,
4174,
4256,
3859,
3973,
3660,
3726,
3521,
3456,
3696,
3340,
3135,
3076,
3071,
3056,
2907,
2832,
2719,
2644,
2584,
2762,
19654,
57403,
2947,
2165,
2490,
8420,
5234,
1824,
1867,
1832,
1819,
1693,
1636,
1561,
1589,
1492,
1403,
1445,
1357,
1340,
1285,
1215,
1197,
1137,
1070,
1092,
1091,
1050,
1089,
2559,
17694,
6052,
952,
899,
877,
863,
786,
852,
1819,
2714,
836,
628,
569,
595,
557,
525,
555,
537,
450,
447,
421,
384,
402,
397,
336,
377,
328,
332,
302,
300,
279,
221,
277,
215,
191,
208,
196,
206,
181,
180,
144,
155,
144,
136,
137,
105,
138,
97,
90,
73,
75,
73,
81,
61,
59,
59,
40,
42,
32,
38,
24,
19,
23,
13,
6,
8,
4,
6,
2,
1,
2,
2,
4,
3,
6,
2,
0,
2,
2,
2,
0,
1,
1,
1,
3,
1,
0,
3,
0,
2,
0,
0,
0,
0,
0,
0,
0,
1,
0,
0,
0,
0,
0,
0,
1,
0,
0,
0,
0,
0,
0,
1,
0,
0,
0,
0,
0,
1,
0,
0,
0,
1,
0,
0,
0,
0,
0,
0,
0,
0,
0,
0,
0,
0,
0,
0,
0,
0,
0,
0,
0,
0,
0,
0,
0,
0,
0,
0,
0,
0,
0,
0,
0,
0,
0,
0,
0,
0,
0,
0,
0,
0,
0,
0,
0,
0,
0,
0,
0,
0,
0,
0,
0,
0,
0,
0,
0,
0,
0,
0,
0,
0,
0,
0,
0,
0,
0,
0,
0,
0,
0,
0,
0,
0,
0,
0,
0,
0,
0,
0,
0,
0,
0,
0,
0,
0,
0,
0,
0,
0,
0,
0,
0,
0,
0,
0,
0,
0,
0,
#ENDOFDATA   :

File: SPI MM1 Arsenopyrite[1][4].msa
#FORMAT      : EMSA/MAS Spectral Data File
#VERSION     : 1.0
#TITLE       : SPI MM1 Arsenopyrite[1][all]
#DATE        : 11-MAR-2025
#TIME        : 13:36
#OWNER       : Unknown
#NPOINTS     : 4096
#NCOLUMNS    : 1
#XUNITS      : eV
#YUNITS      : counts
#DATATYPE    : Y
#XPERCHAN    : 9.99778
#OFFSET      : 1.69135
#BEAMKV      : 20
#SIGNALTYPE  : EDS
#ELEVANGLE   : 35
#AZIMANGLE   : 0
#LIVETIME    : 239.829
#REALTIME    : 260.787
#PROBECUR    : 1.02853
#TAUWIND     : 0
#TDEADLYR    : 0
#TACTLYR     : 0.045
#TALWIND     : 0.025
#CHOFFSET    : 0.0
#XLABEL      : Energy (eV)
#YLABEL      : Counts
#XPOSITION   : 2.17721
#YPOSITION   : -5.01307
#ZPOSITION   : 30.9284
#EDSDET      : SD
##SPECIMEN   : SPI MM1 Arsenopyrite[1][all]
##D2STDCMP   : Arsenopyrite,(S:19.6897),(Fe:34.2972),(As:46.0131),6.0
##DET_HASH   : 12273538-fd48-a23f-0a19-f1e6fa85caef
##CALIB_HASH : 6abaa72c-aa41-8738-0be9-f592914732f3
##WORKING    : 15.0 mm
##DET_NAME   : EDAX All
##DET_MODE   : MediumLE
#SPECTRUM    :
29,
364,
11536,
3287,
11235,
57351,
4988,
5454,
14801,
146367,
10546,
4148,
4538,
4957,
4718,
4973,
33827,
26827,
7572,
4265,
4278,
4283,
4213,
4169,
4020,
3993,
4192,
3993,
3848,
3697,
3701,
3539,
3510,
3619,
3282,
3185,
3082,
3087,
3024,
2929,
2854,
2734,
2637,
2649,
2710,
19864,
57093,
2883,
2326,
2399,
8627,
5323,
1793,
1917,
1823,
1889,
1599,
1605,
1582,
1570,
1439,
1436,
1489,
1449,
1248,
1252,
1221,
1210,
1166,
1180,
1138,
1136,
1074,
1116,
2495,
17767,
5857,
925,
885,
832,
831,
755,
856,
1800,
2664,
905,
647,
574,
533,
556,
532,
552,
549,
482,
438,
444,
379,
419,
348,
365,
334,
339,
308,
325,
284,
275,
238,
258,
241,
236,
205,
189,
178,
167,
193,
154,
155,
145,
155,
119,
119,
119,
115,
84,
82,
84,
73,
62,
72,
57,
48,
48,
42,
35,
36,
30,
21,
20,
12,
18,
11,
6,
2,
4,
0,
3,
0,
3,
1,
1,
2,
6,
1,
1,
1,
1,
2,
2,
0,
3,
1,
1,
0,
0,
1,
2,
1,
0,
0,
2,
1,
2,
0,
0,
1,
0,
0,
2,
0,
1,
1,
1,
2,
0,
0,
1,
0,
0,
0,
1,
0,
0,
0,
0,
0,
0,
0,
0,
0,
0,
1,
0,
0,
0,
0,
0,
0,
0,
0,
1,
0,
0,
0,
0,
0,
0,
0,
0,
0,
0,
0,
0,
0,
0,
0,
0,
0,
0,
0,
0,
0,
0,
0,
0,
0,
0,
0,
0,
0,
0,
0,
0,
0,
0,
0,
0,
0,
0,
0,
0,
0,
0,
0,
0,
0,
0,
0,
0,
0,
0,
0,
0,
0,
0,
0,
0,
0,
0,
0,
0,
0,
0,
0,
0,
0,
0,
0,
0,
0,
0,
0,
0,
0,
0,
0,
0,
0,
0,
0,
0,
0,
0,
0,
0,
#ENDOFDATA   :

File: SPI MM1 Arsenopyrite[2][4].msa
#FORMAT      : EMSA/MAS Spectral Data File
#VERSION     : 1.0
#TITLE       : SPI MM1 Arsenopyrite[2][all]
#DATE        : 11-MAR-2025
#TIME        : 13:37
#OWNER       : Unknown
#NPOINTS     : 4096
#NCOLUMNS    : 1
#XUNITS      : eV
#YUNITS      : counts
#DATATYPE    : Y
#XPERCHAN    : 9.99778
#OFFSET      : 1.69135
#BEAMKV      : 20
#SIGNALTYPE  : EDS
#ELEVANGLE   : 35
#AZIMANGLE   : 0
#LIVETIME    : 239.8424
#REALTIME    : 260.782
#PROBECUR    : 1.02853
#TAUWIND     : 0
#TDEADLYR    : 0
#TACTLYR     : 0.045
#TALWIND     : 0.025
#CHOFFSET    : 0.0
#XLABEL      : Energy (eV)
#YLABEL      : Counts
#XPOSITION   : 2.19181
#YPOSITION   : -5.04083
#ZPOSITION   : 30.9284
#EDSDET      : SD
##SPECIMEN   : SPI MM1 Arsenopyrite[2][all]
##D2STDCMP   : Arsenopyrite,(S:19.6897),(Fe:34.2972),(As:46.0131),6.0
##DET_HASH   : 12273538-fd48-a23f-0a19-f1e6fa85caef
##CALIB_HASH : 6abaa72c-aa41-8738-0be9-f592914732f3
##WORKING    : 15.0 mm
##DET_NAME   : EDAX All
##DET_MODE   : MediumLE
#SPECTRUM    :
19,
367,
11576,
3329,
11286,
58054,
4990,
5445,
14419,
143901,
10371,
4165,
4575,
4914,
4667,
5069,
34005,
27251,
7727,
4333,
4319,
4255,
4255,
4063,
4097,
3999,
4078,
3848,
3784,
3650,
3656,
3615,
3507,
3544,
3194,
3208,
3081,
3083,
2933,
2900,
2702,
2742,
2638,
2597,
2718,
19809,
57422,
2961,
2199,
2414,
8568,
5290,
1883,
1920,
1781,
1794,
1659,
1574,
1552,
1532,
1501,
1409,
1450,
1425,
1314,
1325,
1262,
1266,
1214,
1146,
1101,
1145,
1137,
1071,
2516,
17434,
5829,
884,
883,
808,
823,
785,
817,
1806,
2666,
860,
634,
582,
585,
560,
536,
533,
539,
481,
479,
392,
430,
371,
385,
331,
382,
359,
329,
281,
313,
267,
241,
242,
235,
214,
205,
201,
199,
186,
172,
172,
153,
149,
131,
107,
103,
121,
121,
95,
91,
71,
65,
61,
55,
62,
50,
42,
46,
42,
33,
29,
22,
28,
20,
13,
3,
7,
3,
2,
0,
2,
2,
5,
1,
2,
3,
4,
1,
1,
0,
2,
3,
0,
0,
2,
0,
0,
0,
1,
2,
0,
1,
3,
0,
0,
1,
1,
1,
1,
1,
0,
0,
0,
0,
0,
0,
0,
1,
0,
0,
0,
0,
0,
0,
0,
0,
0,
0,
0,
0,
0,
0,
0,
0,
1,
0,
0,
0,
0,
0,
0,
0,
0,
0,
0,
0,
0,
0,
0,
0,
0,
0,
0,
0,
0,
1,
0,
0,
0,
0,
0,
0,
0,
0,
0,
0,
0,
0,
0,
0,
0,
0,
0,
0,
0,
0,
0,
0,
0,
0,
0,
0,
0,
0,
0,
0,
0,
0,
0,
0,
0,
0,
0,
0,
0,
0,
0,
0,
0,
0,
0,
0,
0,
0,
0,
0,
0,
0,
0,
0,
0,
0,
0,
0,
0,
0,
0,
0,
0,
0,
0,
0,
0,
0,
0,
0,
0,
0,
0,
#ENDOFDATA   :

File: SPI MM1 Arsenopyrite[3][4].msa
#FORMAT      : EMSA/MAS Spectral Data File
#VERSION     : 1.0
#TITLE       : SPI MM1 Arsenopyrite[3][all]
#DATE        : 11-MAR-2025
#TIME        : 13:38
#OWNER       : Unknown
#NPOINTS     : 4096
#NCOLUMNS    : 1
#XUNITS      : eV
#YUNITS      : counts
#DATATYPE    : Y
#XPERCHAN    : 9.99778
#OFFSET      : 1.69135
#BEAMKV      : 20
#SIGNALTYPE  : EDS
#ELEVANGLE   : 35
#AZIMANGLE   : 0
#LIVETIME    : 239.823
#REALTIME    : 260.779
#PROBECUR    : 1.02853
#TAUWIND     : 0
#TDEADLYR    : 0
#TACTLYR     : 0.045
#TALWIND     : 0.025
#CHOFFSET    : 0.0
#XLABEL      : Energy (eV)
#YLABEL      : Counts
#XPOSITION   : 2.19268
#YPOSITION   : -4.96443
#ZPOSITION   : 30.9284
#EDSDET      : SD
##SPECIMEN   : SPI MM1 Arsenopyrite[3][all]
##D2STDCMP   : Arsenopyrite,(S:19.6897),(Fe:34.2972),(As:46.0131),6.0
##DET_HASH   : 12273538-fd48-a23f-0a19-f1e6fa85caef
##CALIB_HASH : 6abaa72c-aa41-8738-0be9-f592914732f3
##WORKING    : 15.0 mm
##DET_NAME   : EDAX All
##DET_MODE   : MediumLE
#SPECTRUM    :
27,
358,
11718,
3357,
11492,
58162,
4946,
5346,
14587,
145959,
10432,
4200,
4456,
4849,
4735,
4873,
33052,
26746,
7770,
4362,
4196,
4216,
4284,
4128,
4113,
4099,
4243,
3863,
3655,
3620,
3745,
3530,
3457,
3667,
3418,
3227,
3092,
3021,
2986,
2815,
2842,
2750,
2626,
2586,
2704,
19569,
57595,
2824,
2269,
2388,
8550,
5209,
1744,
1825,
1839,
1890,
1629,
1681,
1505,
1578,
1556,
1485,
1432,
1374,
1294,
1304,
1249,
1260,
1205,
1123,
1172,
1087,
1068,
1099,
2569,
17789,
6062,
985,
836,
795,
819,
845,
833,
1823,
2661,
902,
600,
589,
584,
524,
541,
544,
505,
519,
469,
429,
388,
396,
368,
364,
340,
333,
286,
266,
267,
288,
250,
228,
220,
219,
211,
196,
190,
172,
184,
150,
150,
151,
140,
109,
117,
116,
123,
71,
72,
111,
75,
67,
64,
69,
51,
46,
42,
38,
32,
29,
27,
15,
21,
21,
10,
13,
5,
8,
0,
2,
2,
0,
2,
1,
3,
2,
1,
1,
1,
2,
0,
2,
0,
1,
1,
2,
1,
2,
0,
0,
0,
1,
1,
1,
0,
1,
0,
0,
0,
2,
0,
0,
1,
1,
0,
0,
0,
0,
0,
1,
0,
0,
0,
0,
0,
1,
0,
0,
0,
0,
0,
0,
0,
0,
1,
0,
0,
0,
0,
0,
0,
0,
0,
0,
0,
0,
0,
0,
0,
0,
0,
0,
0,
0,
0,
0,
0,
0,
0,
0,
0,
0,
0,
1,
0,
0,
0,
0,
0,
0,
0,
0,
0,
0,
0,
0,
0,
0,
0,
0,
0,
0,
0,
0,
0,
0,
0,
0,
0,
0,
0,
0,
0,
0,
0,
0,
0,
0,
0,
0,
0,
0,
0,
0,
0,
0,
0,
0,
0,
0,
0,
0,
0,
0,
0,
0,
0,
0,
0,
0,
0,
0,
0,
0,
0,
0,
0,
0,
#ENDOFDATA   :