Folder: spex_quant/N132962/Quantification/20 keV/MMM1 (part 4)

File: SPI MM1 Bustamite[0][4].msa
#FORMAT      : EMSA/MAS Spectral Data File
#VERSION     : 1.0
#TITLE       : SPI MM1 Bustamite[0][all]
#DATE        : 11-MAR-2025
#TIME        : 14:02
#OWNER       : Unknown
#NPOINTS     : 4096
#NCOLUMNS    : 1
#XUNITS      : eV
#YUNITS      : counts
#DATATYPE    : Y
#XPERCHAN    : 9.99778
#OFFSET      : 1.69135
#BEAMKV      : 20
#SIGNALTYPE  : EDS
#ELEVANGLE   : 35
#AZIMANGLE   : 0
#LIVETIME    : 239.884
#REALTIME    : 255.717
#PROBECUR    : 1.02902
#TAUWIND     : 0
#TDEADLYR    : 0
#TACTLYR     : 0.045
#TALWIND     : 0.025
#CHOFFSET    : 0.0
#XLABEL      : Energy (eV)
#YLABEL      : Counts
#XPOSITION   : 2.65861
#YPOSITION   : -2.68258
#ZPOSITION   : 30.9284
#EDSDET      : SD
##SPECIMEN   : SPI MM1 Bustamite[0][all]
##D2STDCMP   : Bustamite,(O:38.8357),(Si:22.7243),(Ca:16.2141),(Mn:22.2259),6.0
##DET_HASH   : 12273538-fd48-a23f-0a19-f1e6fa85caef
##CALIB_HASH : 6abaa72c-aa41-8738-0be9-f592914732f3
##WORKING    : 15.0 mm
##DET_NAME   : EDAX All
##DET_MODE   : MediumLE
#SPECTRUM    :
20,
207,
11126,
4958,
42132,
6978,
2381,
2998,
3324,
4730,
4328,
5181,
56685,
27347,
3745,
3141,
3510,
3276,
3165,
3162,
3139,
2973,
2926,
2909,
2783,
3205,
36742,
13520,
3720,
7427,
2183,
2033,
1963,
1880,
1851,
1773,
1739,
1649,
1590,
1680,
1636,
2597,
40073,
4526,
1399,
4267,
14126,
2722,
1159,
1135,
2063,
1496,
1005,
1054,
959,
910,
908,
811,
860,
797,
749,
849,
844,
728,
672,
611,
634,
635,
628,
652,
612,
550,
479,
525,
523,
469,
469,
465,
426,
420,
396,
402,
372,
346,
331,
333,
332,
314,
278,
278,
271,
245,
228,
199,
208,
182,
221,
201,
166,
170,
171,
136,
147,
154,
130,
126,
118,
114,
97,
88,
95,
92,
75,
79,
88,
67,
59,
68,
55,
47,
50,
49,
37,
34,
44,
26,
29,
27,
31,
23,
15,
21,
17,
9,
12,
12,
10,
8,
7,
8,
2,
3,
2,
2,
0,
1,
0,
3,
0,
0,
1,
1,
0,
0,
0,
1,
0,
1,
0,
0,
0,
0,
0,
0,
0,
0,
0,
0,
0,
0,
0,
0,
0,
0,
0,
0,
0,
0,
0,
0,
0,
0,
0,
0,
0,
0,
0,
0,
0,
0,
0,
0,
0,
0,
0,
0,
1,
0,
0,
0,
0,
0,
0,
0,
0,
0,
0,
0,
0,
0,
0,
0,
0,
0,
0,
0,
0,
0,
0,
0,
0,
0,
0,
0,
0,
0,
0,
0,
0,
0,
0,
0,
0,
0,
0,
0,
0,
0,
0,
0,
0,
0,
0,
0,
0,
0,
0,
0,
0,
0,
0,
0,
0,
0,
0,
0,
0,
0,
0,
0,
0,
0,
0,
0,
0,
0,
0,
0,
0,
0,
0,
0,
0,
0,
0,
0,
0,
0,
0,
0,
0,
0,
0,
0,
0,
0,
0,
0,
0,
0,
0,
0,
0,
0,
#ENDOFDATA   :

File: SPI MM1 Bustamite[1][4].msa
#FORMAT      : EMSA/MAS Spectral Data File
#VERSION     : 1.0
#TITLE       : SPI MM1 Bustamite[1][all]
#DATE        : 11-MAR-2025
#TIME        : 14:03
#OWNER       : Unknown
#NPOINTS     : 4096
#NCOLUMNS    : 1
#XUNITS      : eV
#YUNITS      : counts
#DATATYPE    : Y
#XPERCHAN    : 9.99778
#OFFSET      : 1.69135
#BEAMKV      : 20
#SIGNALTYPE  : EDS
#ELEVANGLE   : 35
#AZIMANGLE   : 0
#LIVETIME    : 239.923
#REALTIME    : 255.787
#PROBECUR    : 1.02902
#TAUWIND     : 0
#TDEADLYR    : 0
#TACTLYR     : 0.045
#TALWIND     : 0.025
#CHOFFSET    : 0.0
#XLABEL      : Energy (eV)
#YLABEL      : Counts
#XPOSITION   : 2.70097
#YPOSITION   : -2.6919
#ZPOSITION   : 30.9284
#EDSDET      : SD
##SPECIMEN   : SPI MM1 Bustamite[1][all]
##D2STDCMP   : Bustamite,(O:38.8357),(Si:22.7243),(Ca:16.2141),(Mn:22.2259),6.0
##DET_HASH   : 12273538-fd48-a23f-0a19-f1e6fa85caef
##CALIB_HASH : 6abaa72c-aa41-8738-0be9-f592914732f3
##WORKING    : 15.0 mm
##DET_NAME   : EDAX All
##DET_MODE   : MediumLE
#SPECTRUM    :
23,
201,
11236,
4791,
42186,
6867,
2329,
3126,
3315,
4764,
4465,
5336,
56416,
27414,
3857,
3223,
3566,
3196,
3176,
3045,
2965,
3042,
2937,
2838,
2725,
3180,
36836,
13432,
3765,
7390,
2236,
2080,
1937,
1969,
1893,
1798,
1661,
1701,
1654,
1680,
1563,
2672,
39793,
4600,
1499,
4180,
14136,
2724,
1091,
1144,
2009,
1566,
961,
1033,
995,
936,
860,
849,
848,
833,
786,
862,
820,
667,
680,
647,
609,
621,
607,
597,
558,
592,
522,
506,
490,
428,
469,
455,
437,
456,
410,
369,
365,
362,
350,
326,
286,
264,
306,
269,
254,
241,
264,
236,
194,
200,
198,
186,
179,
171,
170,
149,
149,
153,
118,
109,
133,
128,
99,
103,
99,
82,
78,
81,
60,
55,
49,
59,
62,
36,
50,
50,
41,
33,
34,
35,
21,
22,
25,
29,
17,
26,
11,
14,
16,
12,
3,
12,
7,
6,
5,
1,
2,
0,
2,
0,
0,
1,
0,
0,
1,
1,
0,
1,
1,
1,
0,
0,
1,
0,
0,
1,
0,
0,
0,
0,
0,
0,
0,
0,
0,
0,
0,
0,
0,
0,
0,
0,
0,
0,
0,
0,
0,
0,
0,
0,
0,
0,
0,
0,
0,
0,
0,
0,
0,
0,
0,
0,
0,
0,
0,
0,
0,
0,
0,
0,
0,
0,
0,
0,
0,
0,
0,
0,
0,
0,
0,
0,
0,
0,
0,
0,
0,
0,
0,
0,
0,
0,
0,
0,
0,
0,
0,
0,
0,
0,
0,
0,
0,
0,
0,
0,
0,
0,
0,
0,
0,
0,
0,
0,
0,
0,
0,
0,
0,
0,
0,
0,
0,
0,
0,
0,
0,
0,
0,
0,
0,
0,
0,
0,
0,
0,
0,
0,
0,
0,
0,
0,
0,
0,
0,
0,
0,
0,
0,
0,
0,
0,
0,
0,
0,
0,
0,
0,
#ENDOFDATA   :

File: SPI MM1 Bustamite[3][4].msa
#FORMAT      : EMSA/MAS Spectral Data File
#VERSION     : 1.0
#TITLE       : SPI MM1 Bustamite[3][all]
#DATE        : 11-MAR-2025
#TIME        : 14:06
#OWNER       : Unknown
#NPOINTS     : 4096
#NCOLUMNS    : 1
#XUNITS      : eV
#YUNITS      : counts
#DATATYPE    : Y
#XPERCHAN    : 9.99778
#OFFSET      : 1.69135
#BEAMKV      : 20
#SIGNALTYPE  : EDS
#ELEVANGLE   : 35
#AZIMANGLE   : 0
#LIVETIME    : 239.8339
#REALTIME    : 255.663
#PROBECUR    : 1.02902
#TAUWIND     : 0
#TDEADLYR    : 0
#TACTLYR     : 0.045
#TALWIND     : 0.025
#CHOFFSET    : 0.0
#XLABEL      : Energy (eV)
#YLABEL      : Counts
#XPOSITION   : 2.64822
#YPOSITION   : -2.68444
#ZPOSITION   : 30.9284
#EDSDET      : SD
##SPECIMEN   : SPI MM1 Bustamite[3][all]
##D2STDCMP   : Bustamite,(O:38.8357),(Si:22.7243),(Ca:16.2141),(Mn:22.2259),6.0
##DET_HASH   : 12273538-fd48-a23f-0a19-f1e6fa85caef
##CALIB_HASH : 6abaa72c-aa41-8738-0be9-f592914732f3
##WORKING    : 15.0 mm
##DET_NAME   : EDAX All
##DET_MODE   : MediumLE
#SPECTRUM    :
21,
199,
11225,
4838,
41405,
6991,
2325,
3062,
3282,
4622,
4469,
5213,
55962,
27121,
3907,
3205,
3532,
3219,
3149,
3068,
3080,
2922,
2855,
2875,
2729,
3101,
36783,
13568,
3846,
7444,
2307,
1932,
1995,
1851,
1856,
1749,
1739,
1664,
1676,
1743,
1625,
2622,
40188,
4644,
1365,
4125,
13968,
2657,
1137,
1110,
2002,
1478,
989,
987,
983,
955,
840,
791,
846,
820,
746,
865,
830,
755,
672,
658,
612,
592,
666,
604,
577,
554,
547,
488,
514,
469,
466,
389,
398,
416,
391,
362,
335,
367,
333,
330,
306,
278,
288,
268,
253,
238,
235,
233,
215,
193,
217,
173,
168,
194,
175,
173,
135,
150,
116,
129,
134,
111,
89,
98,
95,
85,
91,
80,
62,
62,
71,
39,
66,
58,
55,
43,
40,
43,
38,
32,
29,
30,
31,
19,
23,
19,
21,
11,
16,
13,
7,
6,
4,
5,
2,
1,
2,
0,
0,
1,
0,
0,
0,
1,
0,
1,
0,
0,
0,
0,
0,
0,
0,
0,
0,
0,
0,
0,
0,
0,
0,
0,
0,
0,
0,
0,
0,
0,
0,
0,
1,
0,
0,
0,
0,
0,
0,
0,
0,
0,
0,
0,
0,
0,
0,
0,
0,
0,
0,
0,
0,
0,
0,
0,
0,
0,
0,
0,
0,
0,
0,
0,
0,
0,
1,
0,
0,
0,
0,
0,
0,
0,
0,
0,
0,
0,
0,
0,
0,
0,
0,
0,
0,
0,
0,
0,
0,
0,
0,
0,
0,
0,
0,
0,
0,
0,
0,
0,
0,
0,
0,
0,
0,
0,
0,
0,
0,
0,
0,
0,
0,
0,
0,
0,
0,
0,
0,
0,
0,
0,
0,
0,
0,
0,
0,
0,
0,
0,
0,
0,
0,
0,
0,
0,
0,
0,
0,
0,
0,
0,
0,
0,
0,
0,
0,
0,
0,
0,
#ENDOFDATA   :

File: SPI MM1 Calcite[1][4].msa
#FORMAT      : EMSA/MAS Spectral Data File
#VERSION     : 1.0
#TITLE       : SPI MM1 Calcite[1][all]
#DATE        : 11-MAR-2025
#TIME        : 14:13
#OWNER       : Unknown
#NPOINTS     : 4096
#NCOLUMNS    : 1
#XUNITS      : eV
#YUNITS      : counts
#DATATYPE    : Y
#XPERCHAN    : 9.99778
#OFFSET      : 1.69135
#BEAMKV      : 20
#SIGNALTYPE  : EDS
#ELEVANGLE   : 35
#AZIMANGLE   : 0
#LIVETIME    : 239.836
#REALTIME    : 252.01
#PROBECUR    : 1.02902
#TAUWIND     : 0
#TDEADLYR    : 0
#TACTLYR     : 0.045
#TALWIND     : 0.025
#CHOFFSET    : 0.0
#XLABEL      : Energy (eV)
#YLABEL      : Counts
#XPOSITION   : 0.40161
#YPOSITION   : -2.70204
#ZPOSITION   : 30.9284
#EDSDET      : SD
##SPECIMEN   : SPI MM1 Calcite[1][all]
##D2STDCMP   : Calcite,(C:12.0003),(O:47.9565),(Ca:40.0432),5.0
##DET_HASH   : 12273538-fd48-a23f-0a19-f1e6fa85caef
##CALIB_HASH : 6abaa72c-aa41-8738-0be9-f592914732f3
##WORKING    : 15.0 mm
##DET_NAME   : EDAX All
##DET_MODE   : MediumLE
#SPECTRUM    :
31,
292,
38092,
2840,
22774,
1620,
2179,
2596,
2959,
3446,
3809,
3993,
4264,
4330,
5504,
3498,
3688,
3358,
3267,
3034,
2892,
2844,
2639,
2746,
2503,
3372,
102432,
34489,
6343,
16587,
1663,
1488,
1449,
1366,
1365,
1344,
1337,
1287,
1260,
1177,
1154,
1160,
1170,
1081,
1011,
1045,
1073,
920,
926,
856,
894,
785,
830,
962,
788,
752,
673,
660,
621,
638,
586,
589,
588,
544,
528,
491,
473,
504,
442,
463,
410,
458,
450,
405,
341,
365,
362,
345,
280,
306,
304,
312,
284,
284,
225,
250,
231,
225,
225,
206,
201,
189,
181,
186,
173,
154,
142,
135,
122,
117,
107,
116,
109,
108,
104,
92,
101,
77,
84,
63,
75,
71,
52,
62,
46,
36,
36,
41,
35,
39,
19,
35,
29,
26,
20,
21,
14,
21,
20,
16,
17,
12,
8,
11,
12,
10,
4,
6,
2,
4,
3,
3,
1,
0,
0,
0,
0,
0,
0,
0,
0,
0,
0,
0,
1,
1,
0,
0,
0,
0,
0,
0,
0,
0,
0,
1,
0,
0,
0,
0,
0,
0,
0,
0,
0,
0,
0,
0,
0,
0,
0,
0,
0,
0,
0,
0,
0,
0,
0,
0,
0,
0,
0,
0,
0,
0,
0,
0,
0,
0,
0,
0,
0,
0,
0,
0,
0,
0,
0,
0,
0,
0,
0,
0,
0,
0,
0,
0,
0,
0,
0,
0,
0,
0,
0,
0,
0,
0,
0,
0,
0,
0,
0,
1,
0,
0,
0,
0,
0,
0,
0,
0,
0,
0,
0,
0,
0,
0,
0,
0,
0,
0,
0,
0,
0,
0,
0,
0,
0,
0,
0,
0,
0,
0,
0,
0,
0,
0,
0,
0,
0,
0,
0,
0,
0,
0,
0,
0,
0,
0,
0,
0,
0,
0,
0,
0,
0,
0,
0,
0,
0,
0,
0,
0,
#ENDOFDATA   :

File: SPI MM1 Calcite[2][4].msa
#FORMAT      : EMSA/MAS Spectral Data File
#VERSION     : 1.0
#TITLE       : SPI MM1 Calcite[2][all]
#DATE        : 11-MAR-2025
#TIME        : 14:14
#OWNER       : Unknown
#NPOINTS     : 4096
#NCOLUMNS    : 1
#XUNITS      : eV
#YUNITS      : counts
#DATATYPE    : Y
#XPERCHAN    : 9.99778
#OFFSET      : 1.69135
#BEAMKV      : 20
#SIGNALTYPE  : EDS
#ELEVANGLE   : 35
#AZIMANGLE   : 0
#LIVETIME    : 239.922
#REALTIME    : 252.206
#PROBECUR    : 1.02902
#TAUWIND     : 0
#TDEADLYR    : 0
#TACTLYR     : 0.045
#TALWIND     : 0.025
#CHOFFSET    : 0.0
#XLABEL      : Energy (eV)
#YLABEL      : Counts
#XPOSITION   : 0.11014
#YPOSITION   : -2.9602
#ZPOSITION   : 30.9284
#EDSDET      : SD
##SPECIMEN   : SPI MM1 Calcite[2][all]
##D2STDCMP   : Calcite,(C:12.0003),(O:47.9565),(Ca:40.0432),5.0
##DET_HASH   : 12273538-fd48-a23f-0a19-f1e6fa85caef
##CALIB_HASH : 6abaa72c-aa41-8738-0be9-f592914732f3
##WORKING    : 15.0 mm
##DET_NAME   : EDAX All
##DET_MODE   : MediumLE
#SPECTRUM    :
30,
273,
38772,
2882,
23597,
1594,
2151,
2486,
2977,
3554,
3855,
4130,
4249,
4357,
5674,
3633,
3615,
3367,
3161,
3120,
2905,
2836,
2694,
2759,
2424,
3446,
103639,
34863,
6345,
16945,
1663,
1418,
1424,
1390,
1374,
1365,
1296,
1217,
1227,
1247,
1144,
1110,
1278,
1106,
1091,
988,
1060,
905,
880,
914,
827,
812,
831,
942,
799,
763,
678,
648,
687,
657,
622,
633,
583,
553,
533,
507,
519,
463,
468,
493,
423,
453,
409,
418,
416,
367,
370,
377,
344,
293,
308,
277,
290,
256,
250,
264,
241,
221,
214,
199,
181,
155,
172,
179,
164,
163,
162,
137,
139,
120,
138,
126,
122,
107,
89,
102,
89,
81,
95,
72,
66,
78,
60,
44,
56,
51,
52,
48,
44,
52,
32,
27,
28,
35,
28,
31,
16,
19,
15,
13,
14,
14,
9,
16,
10,
11,
6,
4,
3,
3,
4,
0,
2,
1,
1,
1,
1,
1,
0,
0,
0,
0,
0,
0,
0,
0,
0,
0,
0,
0,
0,
0,
0,
0,
0,
0,
0,
0,
0,
0,
0,
0,
0,
0,
0,
0,
0,
0,
0,
0,
0,
0,
0,
0,
0,
0,
0,
0,
0,
0,
0,
0,
0,
0,
0,
0,
0,
0,
0,
0,
0,
0,
0,
0,
0,
0,
0,
0,
0,
0,
0,
0,
0,
0,
0,
0,
0,
0,
0,
0,
0,
0,
0,
0,
0,
0,
0,
0,
0,
0,
0,
0,
0,
0,
0,
0,
0,
0,
0,
0,
0,
0,
0,
0,
0,
0,
0,
0,
0,
0,
0,
0,
0,
0,
0,
0,
0,
0,
0,
0,
0,
0,
0,
0,
0,
0,
0,
0,
0,
0,
0,
0,
0,
0,
0,
0,
0,
0,
0,
0,
0,
0,
0,
0,
0,
0,
0,
0,
0,
0,
0,
0,
0,
0,
#ENDOFDATA   :

File: SPI MM1 Calcite[7][4].msa
#FORMAT      : EMSA/MAS Spectral Data File
#VERSION     : 1.0
#TITLE       : SPI MM1 Calcite[7][all]
#DATE        : 11-MAR-2025
#TIME        : 14:19
#OWNER       : Unknown
#NPOINTS     : 4096
#NCOLUMNS    : 1
#XUNITS      : eV
#YUNITS      : counts
#DATATYPE    : Y
#XPERCHAN    : 9.99778
#OFFSET      : 1.69135
#BEAMKV      : 20
#SIGNALTYPE  : EDS
#ELEVANGLE   : 35
#AZIMANGLE   : 0
#LIVETIME    : 239.924
#REALTIME    : 252.196
#PROBECUR    : 1.02902
#TAUWIND     : 0
#TDEADLYR    : 0
#TACTLYR     : 0.045
#TALWIND     : 0.025
#CHOFFSET    : 0.0
#XLABEL      : Energy (eV)
#YLABEL      : Counts
#XPOSITION   : -0.14386
#YPOSITION   : -2.86442
#ZPOSITION   : 30.9284
#EDSDET      : SD
##SPECIMEN   : SPI MM1 Calcite[7][all]
##D2STDCMP   : Calcite,(C:12.0003),(O:47.9565),(Ca:40.0432),5.0
##DET_HASH   : 12273538-fd48-a23f-0a19-f1e6fa85caef
##CALIB_HASH : 6abaa72c-aa41-8738-0be9-f592914732f3
##WORKING    : 15.0 mm
##DET_NAME   : EDAX All
##DET_MODE   : MediumLE
#SPECTRUM    :
31,
287,
38657,
2817,
23563,
1667,
2073,
2505,
3076,
3518,
3885,
4062,
4272,
4387,
5774,
3515,
3582,
3408,
3161,
3121,
2985,
2881,
2832,
2741,
2457,
3436,
103704,
34292,
6377,
16848,
1713,
1505,
1488,
1418,
1400,
1382,
1351,
1273,
1255,
1242,
1262,
1092,
1289,
1091,
1035,
1017,
1002,
958,
921,
869,
830,
880,
880,
941,
785,
746,
710,
735,
654,
618,
593,
598,
531,
546,
524,
506,
523,
491,
505,
435,
419,
445,
405,
412,
371,
371,
335,
327,
350,
297,
301,
308,
265,
245,
254,
253,
248,
238,
209,
211,
171,
198,
191,
209,
167,
141,
167,
155,
129,
127,
121,
119,
103,
119,
99,
75,
97,
78,
68,
67,
64,
54,
61,
54,
56,
56,
57,
33,
40,
36,
34,
23,
25,
19,
27,
19,
20,
14,
24,
17,
8,
10,
7,
6,
12,
5,
4,
6,
5,
8,
1,
2,
0,
0,
0,
1,
0,
0,
1,
0,
1,
0,
0,
0,
0,
0,
0,
0,
0,
0,
0,
0,
0,
0,
0,
0,
1,
1,
0,
0,
0,
0,
0,
0,
0,
0,
0,
0,
0,
0,
0,
0,
0,
0,
0,
0,
0,
0,
0,
0,
0,
0,
0,
0,
0,
0,
0,
0,
0,
0,
0,
0,
0,
0,
0,
0,
0,
0,
0,
0,
0,
0,
0,
0,
0,
0,
0,
0,
0,
0,
0,
0,
0,
0,
0,
0,
0,
0,
0,
0,
0,
0,
0,
0,
0,
0,
0,
0,
0,
0,
0,
0,
0,
0,
0,
0,
0,
0,
0,
0,
0,
0,
0,
0,
0,
0,
0,
0,
0,
0,
0,
0,
0,
0,
0,
0,
0,
0,
0,
0,
0,
0,
0,
0,
0,
0,
0,
0,
0,
0,
0,
0,
0,
0,
0,
0,
0,
0,
0,
0,
0,
0,
0,
0,
#ENDOFDATA   :

File: SPI MM1 Chalcopyrite[2][4].msa
#FORMAT      : EMSA/MAS Spectral Data File
#VERSION     : 1.0
#TITLE       : SPI MM1 Chalcopyrite[2][all]
#DATE        : 11-MAR-2025
#TIME        : 14:29
#OWNER       : Unknown
#NPOINTS     : 4096
#NCOLUMNS    : 1
#XUNITS      : eV
#YUNITS      : counts
#DATATYPE    : Y
#XPERCHAN    : 9.99778
#OFFSET      : 1.69135
#BEAMKV      : 20
#SIGNALTYPE  : EDS
#ELEVANGLE   : 35
#AZIMANGLE   : 0
#LIVETIME    : 239.885
#REALTIME    : 260.452
#PROBECUR    : 1.02809
#TAUWIND     : 0
#TDEADLYR    : 0
#TACTLYR     : 0.045
#TALWIND     : 0.025
#CHOFFSET    : 0.0
#XLABEL      : Energy (eV)
#YLABEL      : Counts
#XPOSITION   : -4.90381
#YPOSITION   : -3.94327
#ZPOSITION   : 30.9284
#EDSDET      : SD
##SPECIMEN   : SPI MM1 Chalcopyrite[2][all]
##D2STDCMP   : Chalcopyrite,(S:34.9407),(Fe:30.4314),(Cu:34.6279),4.2
##DET_HASH   : 12273538-fd48-a23f-0a19-f1e6fa85caef
##CALIB_HASH : 6abaa72c-aa41-8738-0be9-f592914732f3
##WORKING    : 15.0 mm
##DET_NAME   : EDAX All
##DET_MODE   : MediumLE
#SPECTRUM    :
21,
451,
10733,
3238,
13327,
42081,
11643,
28684,
3418,
4042,
4603,
4952,
5568,
5803,
5213,
5834,
66426,
51808,
10822,
3795,
3693,
3842,
3847,
3968,
3639,
3567,
3413,
3510,
3310,
3276,
3244,
3175,
3047,
3479,
2973,
2859,
2769,
2606,
2553,
2576,
2504,
2355,
2420,
2297,
2468,
17412,
50865,
2505,
1869,
2085,
7441,
4552,
1630,
1683,
1453,
1523,
1855,
25309,
16821,
1452,
1368,
1286,
1424,
3510,
4243,
1079,
1025,
1039,
944,
959,
945,
935,
898,
926,
945,
795,
759,
737,
697,
705,
660,
617,
597,
615,
596,
572,
527,
504,
431,
496,
447,
458,
416,
391,
385,
380,
379,
352,
320,
312,
286,
274,
296,
277,
269,
242,
225,
212,
212,
176,
207,
175,
150,
126,
156,
143,
108,
115,
108,
112,
94,
81,
89,
81,
82,
55,
70,
56,
54,
44,
41,
47,
33,
30,
34,
28,
23,
23,
10,
17,
6,
6,
4,
1,
3,
0,
2,
1,
0,
2,
0,
3,
1,
1,
0,
0,
1,
1,
1,
0,
0,
0,
0,
0,
0,
0,
0,
0,
1,
1,
2,
0,
1,
0,
0,
0,
0,
0,
0,
1,
1,
0,
0,
1,
0,
0,
0,
0,
0,
0,
0,
0,
0,
0,
0,
0,
1,
0,
0,
0,
0,
0,
0,
0,
0,
0,
0,
0,
0,
0,
0,
0,
0,
0,
0,
0,
0,
0,
0,
0,
0,
0,
0,
0,
0,
0,
0,
0,
0,
0,
0,
0,
0,
0,
0,
0,
0,
0,
0,
0,
0,
0,
0,
0,
0,
0,
0,
0,
0,
0,
0,
0,
0,
0,
0,
0,
0,
0,
0,
0,
0,
0,
0,
0,
0,
0,
0,
0,
0,
0,
0,
0,
0,
0,
0,
0,
0,
0,
0,
0,
0,
0,
0,
0,
0,
0,
0,
0,
0,
0,
0,
0,
0,
0,
#ENDOFDATA   :

File: SPI MM1 Chalcopyrite[3][4].msa
#FORMAT      : EMSA/MAS Spectral Data File
#VERSION     : 1.0
#TITLE       : SPI MM1 Chalcopyrite[3][all]
#DATE        : 11-MAR-2025
#TIME        : 14:30
#OWNER       : Unknown
#NPOINTS     : 4096
#NCOLUMNS    : 1
#XUNITS      : eV
#YUNITS      : counts
#DATATYPE    : Y
#XPERCHAN    : 9.99778
#OFFSET      : 1.69135
#BEAMKV      : 20
#SIGNALTYPE  : EDS
#ELEVANGLE   : 35
#AZIMANGLE   : 0
#LIVETIME    : 239.785
#REALTIME    : 260.327
#PROBECUR    : 1.02809
#TAUWIND     : 0
#TDEADLYR    : 0
#TACTLYR     : 0.045
#TALWIND     : 0.025
#CHOFFSET    : 0.0
#XLABEL      : Energy (eV)
#YLABEL      : Counts
#XPOSITION   : -4.86775
#YPOSITION   : -3.78377
#ZPOSITION   : 30.9284
#EDSDET      : SD
##SPECIMEN   : SPI MM1 Chalcopyrite[3][all]
##D2STDCMP   : Chalcopyrite,(S:34.9407),(Fe:30.4314),(Cu:34.6279),4.2
##DET_HASH   : 12273538-fd48-a23f-0a19-f1e6fa85caef
##CALIB_HASH : 6abaa72c-aa41-8738-0be9-f592914732f3
##WORKING    : 15.0 mm
##DET_NAME   : EDAX All
##DET_MODE   : MediumLE
#SPECTRUM    :
27,
451,
10705,
3209,
13423,
42627,
11604,
28868,
3415,
3952,
4738,
4990,
5518,
5851,
5449,
5693,
66555,
52245,
10854,
3865,
3785,
3760,
3854,
3841,
3715,
3614,
3517,
3373,
3407,
3242,
3189,
3110,
3021,
3433,
2937,
2832,
2688,
2615,
2592,
2540,
2432,
2272,
2400,
2244,
2442,
17513,
50510,
2483,
2069,
2084,
7521,
4762,
1619,
1631,
1466,
1566,
1829,
25336,
16820,
1484,
1366,
1322,
1437,
3664,
4296,
1113,
1038,
978,
964,
923,
928,
854,
868,
824,
981,
840,
729,
732,
778,
714,
655,
650,
624,
596,
558,
570,
522,
481,
509,
463,
478,
419,
426,
378,
368,
393,
331,
302,
328,
313,
316,
304,
275,
286,
243,
197,
219,
217,
202,
196,
154,
156,
166,
132,
152,
135,
111,
117,
108,
100,
85,
84,
72,
77,
82,
65,
56,
49,
42,
38,
44,
44,
28,
28,
18,
18,
13,
16,
10,
11,
8,
7,
4,
0,
1,
1,
0,
2,
1,
0,
0,
0,
0,
1,
0,
0,
0,
2,
1,
1,
1,
1,
1,
0,
0,
1,
1,
0,
0,
1,
0,
0,
0,
0,
1,
0,
0,
2,
0,
0,
0,
0,
0,
0,
0,
0,
0,
0,
0,
0,
0,
0,
0,
1,
1,
0,
0,
0,
0,
0,
0,
0,
0,
0,
0,
0,
0,
0,
0,
0,
0,
0,
0,
0,
0,
0,
0,
0,
0,
0,
0,
0,
0,
0,
0,
0,
0,
0,
0,
0,
0,
0,
0,
0,
0,
0,
0,
0,
0,
0,
0,
0,
0,
0,
0,
0,
0,
0,
0,
0,
0,
0,
0,
0,
0,
0,
0,
0,
0,
0,
0,
0,
0,
0,
0,
0,
0,
0,
0,
0,
0,
0,
0,
0,
0,
0,
0,
0,
0,
0,
0,
0,
0,
0,
0,
0,
0,
0,
0,
0,
0,
0,
0,
0,
#ENDOFDATA   :

File: SPI MM1 Chalcopyrite[5][4].msa
#FORMAT      : EMSA/MAS Spectral Data File
#VERSION     : 1.0
#TITLE       : SPI MM1 Chalcopyrite[5][all]
#DATE        : 11-MAR-2025
#TIME        : 14:32
#OWNER       : Unknown
#NPOINTS     : 4096
#NCOLUMNS    : 1
#XUNITS      : eV
#YUNITS      : counts
#DATATYPE    : Y
#XPERCHAN    : 9.99778
#OFFSET      : 1.69135
#BEAMKV      : 20
#SIGNALTYPE  : EDS
#ELEVANGLE   : 35
#AZIMANGLE   : 0
#LIVETIME    : 239.841
#REALTIME    : 260.396
#PROBECUR    : 1.02809
#TAUWIND     : 0
#TDEADLYR    : 0
#TACTLYR     : 0.045
#TALWIND     : 0.025
#CHOFFSET    : 0.0
#XLABEL      : Energy (eV)
#YLABEL      : Counts
#XPOSITION   : -4.97109
#YPOSITION   : -3.90795
#ZPOSITION   : 30.9284
#EDSDET      : SD
##SPECIMEN   : SPI MM1 Chalcopyrite[5][all]
##D2STDCMP   : Chalcopyrite,(S:34.9407),(Fe:30.4314),(Cu:34.6279),4.2
##DET_HASH   : 12273538-fd48-a23f-0a19-f1e6fa85caef
##CALIB_HASH : 6abaa72c-aa41-8738-0be9-f592914732f3
##WORKING    : 15.0 mm
##DET_NAME   : EDAX All
##DET_MODE   : MediumLE
#SPECTRUM    :
29,
443,
10776,
3152,
13316,
42521,
11773,
28918,
3470,
3943,
4580,
5062,
5573,
5636,
5430,
5832,
66050,
52084,
10937,
3705,
3762,
3911,
3854,
3949,
3619,
3508,
3454,
3495,
3374,
3261,
3234,
3055,
3156,
3415,
2945,
2854,
2739,
2606,
2556,
2600,
2449,
2306,
2348,
2245,
2376,
17565,
50672,
2457,
2053,
2034,
7619,
4763,
1620,
1692,
1567,
1425,
1831,
25163,
16480,
1460,
1224,
1324,
1477,
3512,
4189,
1131,
1036,
1007,
967,
934,
984,
910,
879,
926,
894,
797,
774,
804,
751,
661,
688,
635,
642,
580,
595,
516,
529,
543,
496,
475,
438,
449,
419,
384,
364,
353,
332,
345,
309,
286,
303,
293,
287,
297,
235,
224,
199,
196,
208,
184,
176,
190,
152,
133,
148,
112,
127,
118,
102,
113,
91,
106,
91,
73,
67,
69,
48,
53,
50,
36,
39,
54,
36,
22,
27,
26,
22,
12,
17,
12,
6,
2,
1,
6,
0,
0,
3,
2,
2,
0,
1,
0,
0,
1,
2,
0,
0,
1,
0,
1,
2,
0,
1,
0,
0,
0,
0,
0,
0,
0,
1,
1,
1,
0,
2,
0,
1,
0,
0,
0,
0,
0,
0,
0,
0,
0,
0,
0,
0,
0,
0,
0,
0,
0,
0,
0,
0,
0,
0,
1,
0,
0,
0,
0,
0,
0,
0,
0,
0,
0,
0,
0,
0,
0,
0,
0,
0,
0,
0,
0,
0,
0,
0,
0,
0,
0,
0,
0,
0,
0,
0,
0,
0,
0,
0,
0,
0,
0,
0,
0,
0,
0,
0,
0,
0,
0,
0,
0,
0,
0,
0,
0,
0,
0,
0,
0,
0,
0,
0,
0,
0,
0,
0,
0,
0,
0,
0,
0,
0,
0,
0,
0,
0,
0,
0,
0,
0,
0,
0,
0,
0,
0,
0,
0,
0,
0,
0,
0,
0,
0,
0,
0,
0,
0,
#ENDOFDATA   :

File: SPI MM1 Chalcopyrite[6][4].msa
#FORMAT      : EMSA/MAS Spectral Data File
#VERSION     : 1.0
#TITLE       : SPI MM1 Chalcopyrite[6][all]
#DATE        : 11-MAR-2025
#TIME        : 14:33
#OWNER       : Unknown
#NPOINTS     : 4096
#NCOLUMNS    : 1
#XUNITS      : eV
#YUNITS      : counts
#DATATYPE    : Y
#XPERCHAN    : 9.99778
#OFFSET      : 1.69135
#BEAMKV      : 20
#SIGNALTYPE  : EDS
#ELEVANGLE   : 35
#AZIMANGLE   : 0
#LIVETIME    : 239.835
#REALTIME    : 260.399
#PROBECUR    : 1.02809
#TAUWIND     : 0
#TDEADLYR    : 0
#TACTLYR     : 0.045
#TALWIND     : 0.025
#CHOFFSET    : 0.0
#XLABEL      : Energy (eV)
#YLABEL      : Counts
#XPOSITION   : -4.82437
#YPOSITION   : -3.88173
#ZPOSITION   : 30.9284
#EDSDET      : SD
##SPECIMEN   : SPI MM1 Chalcopyrite[6][all]
##D2STDCMP   : Chalcopyrite,(S:34.9407),(Fe:30.4314),(Cu:34.6279),4.2
##DET_HASH   : 12273538-fd48-a23f-0a19-f1e6fa85caef
##CALIB_HASH : 6abaa72c-aa41-8738-0be9-f592914732f3
##WORKING    : 15.0 mm
##DET_NAME   : EDAX All
##DET_MODE   : MediumLE
#SPECTRUM    :
27,
475,
10865,
3219,
13403,
42358,
11634,
28591,
3368,
4099,
4679,
4924,
5586,
5833,
5419,
5706,
66729,
51763,
10927,
3718,
3853,
3782,
3755,
3928,
3745,
3438,
3501,
3431,
3300,
3262,
3180,
3125,
3178,
3426,
2970,
2804,
2654,
2611,
2633,
2560,
2374,
2352,
2303,
2199,
2273,
17550,
50556,
2538,
1907,
2198,
7510,
4633,
1660,
1729,
1505,
1480,
1934,
24880,
16851,
1549,
1321,
1242,
1425,
3649,
4292,
1112,
1066,
970,
1012,
956,
911,
913,
851,
844,
859,
754,
763,
733,
705,
692,
681,
621,
644,
619,
597,
539,
524,
513,
474,
488,
466,
473,
442,
413,
399,
362,
360,
330,
338,
280,
286,
284,
242,
263,
258,
223,
226,
201,
185,
184,
199,
170,
138,
160,
136,
137,
114,
108,
107,
110,
106,
76,
104,
63,
71,
62,
66,
61,
53,
53,
41,
31,
41,
28,
20,
25,
19,
16,
12,
10,
7,
9,
2,
2,
1,
3,
1,
1,
4,
1,
0,
0,
1,
1,
1,
0,
0,
0,
2,
3,
1,
0,
0,
0,
0,
0,
0,
0,
0,
1,
0,
0,
0,
0,
0,
0,
0,
0,
0,
1,
0,
0,
0,
0,
0,
0,
0,
0,
1,
1,
0,
0,
0,
0,
0,
0,
0,
0,
0,
0,
0,
0,
0,
0,
0,
0,
0,
0,
0,
0,
0,
0,
0,
0,
0,
0,
0,
0,
0,
0,
1,
0,
0,
0,
0,
0,
0,
0,
0,
0,
0,
0,
0,
0,
0,
0,
0,
0,
0,
0,
0,
0,
0,
0,
0,
0,
0,
0,
0,
0,
0,
0,
0,
0,
0,
0,
0,
0,
0,
0,
0,
0,
0,
0,
0,
0,
0,
0,
0,
0,
0,
0,
0,
0,
0,
0,
0,
0,
0,
0,
0,
0,
0,
0,
0,
0,
0,
0,
0,
0,
0,
0,
0,
0,
#ENDOFDATA   :

File: SPI MM1 Chlorite[0][4].msa
#FORMAT      : EMSA/MAS Spectral Data File
#VERSION     : 1.0
#TITLE       : SPI MM1dup Chlorite[0][all]
#DATE        : 12-MAR-2025
#TIME        : 14:18
#OWNER       : Unknown
#NPOINTS     : 4096
#NCOLUMNS    : 1
#XUNITS      : eV
#YUNITS      : counts
#DATATYPE    : Y
#XPERCHAN    : 9.99778
#OFFSET      : 1.69135
#BEAMKV      : 20
#SIGNALTYPE  : EDS
#ELEVANGLE   : 35
#AZIMANGLE   : 0
#LIVETIME    : 239.83
#REALTIME    : 254.695
#PROBECUR    : 1.02867
#TAUWIND     : 0
#TDEADLYR    : 0
#TACTLYR     : 0.045
#TALWIND     : 0.025
#CHOFFSET    : 0.0
#XLABEL      : Energy (eV)
#YLABEL      : Counts
#XPOSITION   : 6.09054
#YPOSITION   : -0.41586
#ZPOSITION   : 31.03608
#EDSDET      : SD
##SPECIMEN   : SPI MM1dup Chlorite[0][all]
##DET_HASH   : 12273538-fd48-a23f-0a19-f1e6fa85caef
##CALIB_HASH : 6abaa72c-aa41-8738-0be9-f592914732f3
##WORKING    : 15.0 mm
##DET_NAME   : EDAX All
##DET_MODE   : MediumLE
#SPECTRUM    :
17,
182,
8749,
7637,
81178,
4239,
2747,
3190,
4688,
151054,
6431,
22508,
28335,
14464,
2226,
2192,
2470,
2207,
2341,
2187,
2098,
2189,
2048,
2003,
1760,
1863,
1700,
1624,
1603,
1540,
1490,
1395,
1351,
1337,
1284,
1267,
1223,
1177,
1945,
3284,
1100,
950,
1254,
1073,
917,
1922,
4364,
801,
758,
791,
1113,
878,
681,
918,
691,
590,
583,
599,
566,
570,
521,
482,
468,
482,
410,
399,
421,
388,
381,
366,
355,
324,
367,
326,
285,
281,
303,
265,
269,
213,
230,
245,
232,
215,
216,
212,
173,
160,
195,
179,
164,
132,
143,
160,
121,
115,
117,
112,
117,
100,
83,
83,
82,
80,
64,
75,
71,
83,
54,
59,
62,
45,
46,
49,
40,
48,
42,
38,
29,
20,
31,
25,
20,
27,
17,
17,
20,
12,
19,
15,
13,
6,
6,
8,
6,
5,
6,
7,
2,
3,
0,
1,
1,
0,
0,
0,
1,
0,
0,
0,
0,
0,
0,
0,
0,
0,
0,
0,
0,
0,
0,
0,
1,
0,
0,
0,
0,
0,
0,
0,
0,
0,
0,
0,
0,
0,
0,
0,
0,
0,
0,
0,
0,
0,
0,
0,
0,
0,
0,
0,
0,
0,
0,
0,
0,
0,
0,
0,
0,
0,
0,
0,
0,
0,
0,
0,
0,
0,
0,
0,
0,
0,
0,
0,
0,
0,
0,
0,
0,
0,
0,
0,
0,
0,
0,
0,
0,
0,
0,
0,
0,
0,
0,
0,
0,
0,
0,
0,
0,
0,
0,
0,
0,
0,
0,
0,
0,
0,
0,
0,
0,
0,
0,
0,
0,
0,
0,
0,
0,
0,
0,
0,
0,
0,
0,
0,
0,
0,
0,
0,
0,
0,
0,
0,
0,
0,
0,
0,
0,
0,
0,
0,
0,
0,
0,
0,
0,
0,
0,
0,
0,
0,
0,
0,
#ENDOFDATA   :