Folder: spex_quant/N132962/Quantification/20 keV/MMM1 (part 6)

File: SPI MM1 Cryolite[7][4].msa
#FORMAT      : EMSA/MAS Spectral Data File
#VERSION     : 1.0
#TITLE       : SPI MM1dup Cryolite[7][all]
#DATE        : 12-MAR-2025
#TIME        : 13:48
#OWNER       : Unknown
#NPOINTS     : 4096
#NCOLUMNS    : 1
#XUNITS      : eV
#YUNITS      : counts
#DATATYPE    : Y
#XPERCHAN    : 9.99778
#OFFSET      : 1.69135
#BEAMKV      : 20
#SIGNALTYPE  : EDS
#ELEVANGLE   : 35
#AZIMANGLE   : 0
#LIVETIME    : 239.962
#REALTIME    : 258.532
#PROBECUR    : 1.02627
#TAUWIND     : 0
#TDEADLYR    : 0
#TACTLYR     : 0.045
#TALWIND     : 0.025
#CHOFFSET    : 0.0
#XLABEL      : Energy (eV)
#YLABEL      : Counts
#XPOSITION   : -3.98482
#YPOSITION   : -0.54513
#ZPOSITION   : 31.03608
#EDSDET      : SD
##SPECIMEN   : SPI MM1dup Cryolite[7][all]
##D2STDCMP   : Cryolite,(F:54.2963),(Na:32.8517),(Al:12.8519)
##DET_HASH   : 12273538-fd48-a23f-0a19-f1e6fa85caef
##CALIB_HASH : 6abaa72c-aa41-8738-0be9-f592914732f3
##WORKING    : 15.0 mm
##DET_NAME   : EDAX All
##DET_MODE   : MediumLE
#SPECTRUM    :
24,
374,
9334,
4396,
13311,
335753,
2459,
38342,
9862,
2363,
7195,
26682,
3175,
2425,
2192,
2543,
2288,
2232,
2366,
2266,
2172,
2147,
2000,
1899,
1957,
1788,
1721,
1683,
1568,
1548,
1516,
1464,
1432,
1401,
1218,
1244,
1229,
1084,
1120,
1097,
988,
994,
958,
957,
945,
876,
911,
785,
739,
743,
748,
668,
722,
678,
639,
629,
583,
581,
609,
512,
520,
486,
462,
464,
453,
454,
400,
397,
396,
371,
360,
342,
325,
347,
333,
309,
249,
283,
270,
274,
243,
217,
226,
237,
226,
183,
169,
187,
188,
183,
155,
151,
149,
116,
125,
121,
115,
111,
109,
109,
102,
92,
83,
67,
91,
62,
82,
53,
52,
74,
50,
49,
51,
44,
45,
49,
41,
24,
33,
35,
28,
17,
23,
23,
18,
16,
12,
19,
15,
6,
9,
12,
9,
15,
8,
7,
4,
2,
5,
3,
2,
1,
1,
0,
1,
0,
0,
0,
0,
0,
0,
0,
0,
0,
0,
0,
0,
0,
0,
0,
0,
0,
0,
0,
0,
0,
0,
0,
0,
0,
0,
0,
0,
0,
0,
0,
0,
0,
0,
0,
0,
0,
0,
0,
0,
0,
0,
0,
0,
0,
0,
0,
0,
0,
0,
0,
0,
0,
0,
0,
0,
0,
0,
0,
0,
0,
0,
0,
0,
0,
0,
0,
0,
0,
0,
0,
0,
0,
0,
0,
0,
0,
0,
0,
0,
0,
0,
0,
0,
0,
0,
0,
0,
0,
0,
0,
0,
0,
0,
0,
0,
0,
0,
0,
0,
0,
0,
0,
0,
0,
0,
0,
0,
0,
0,
0,
0,
0,
0,
0,
0,
0,
0,
0,
0,
0,
0,
0,
0,
0,
0,
0,
0,
0,
0,
0,
0,
0,
0,
0,
0,
0,
0,
0,
0,
0,
0,
0,
0,
0,
0,
0,
0,
0,
#ENDOFDATA   :

File: SPI MM1 Diopside[0][4].msa
#FORMAT      : EMSA/MAS Spectral Data File
#VERSION     : 1.0
#TITLE       : SPI MM1dup Diopside[0][all]
#DATE        : 12-MAR-2025
#TIME        : 15:35
#OWNER       : Unknown
#NPOINTS     : 4096
#NCOLUMNS    : 1
#XUNITS      : eV
#YUNITS      : counts
#DATATYPE    : Y
#XPERCHAN    : 9.99778
#OFFSET      : 1.69135
#BEAMKV      : 20
#SIGNALTYPE  : EDS
#ELEVANGLE   : 35
#AZIMANGLE   : 0
#LIVETIME    : 239.871
#REALTIME    : 255.276
#PROBECUR    : 1.02695
#TAUWIND     : 0
#TDEADLYR    : 0
#TACTLYR     : 0.045
#TALWIND     : 0.025
#CHOFFSET    : 0.0
#XLABEL      : Energy (eV)
#YLABEL      : Counts
#XPOSITION   : 2.16343
#YPOSITION   : 1.43719
#ZPOSITION   : 31.03609
#EDSDET      : SD
##SPECIMEN   : SPI MM1dup Diopside[0][all]
##D2STDCMP   : Diopside,(O:44.3298),(Mg:11.2237),(Si:25.939),(Ca:18.5075)
##DET_HASH   : 12273538-fd48-a23f-0a19-f1e6fa85caef
##CALIB_HASH : 6abaa72c-aa41-8738-0be9-f592914732f3
##WORKING    : 15.0 mm
##DET_NAME   : EDAX All
##DET_MODE   : MediumLE
#SPECTRUM    :
31,
171,
10264,
3965,
35485,
2646,
2637,
3570,
4359,
81164,
4051,
5316,
63593,
30166,
3468,
2649,
2958,
2648,
2659,
2505,
2514,
2640,
2416,
2404,
2214,
2821,
44764,
15631,
3748,
8437,
1750,
1569,
1599,
1454,
1375,
1466,
1389,
1339,
1338,
1404,
1151,
1165,
1300,
1095,
1036,
1271,
1866,
936,
941,
913,
951,
913,
835,
784,
747,
705,
694,
712,
663,
605,
629,
581,
594,
577,
543,
536,
486,
505,
489,
475,
427,
424,
437,
407,
396,
371,
336,
349,
351,
319,
316,
312,
298,
239,
239,
256,
239,
229,
225,
214,
198,
179,
194,
180,
164,
154,
143,
165,
126,
122,
123,
119,
97,
103,
98,
91,
88,
80,
79,
55,
64,
69,
61,
63,
70,
35,
41,
39,
55,
49,
38,
34,
28,
28,
19,
16,
20,
15,
16,
24,
18,
15,
11,
12,
10,
9,
11,
3,
5,
6,
6,
3,
4,
0,
0,
0,
0,
0,
0,
1,
0,
0,
0,
0,
0,
0,
0,
0,
0,
0,
0,
0,
0,
0,
0,
2,
0,
0,
0,
0,
0,
0,
0,
0,
0,
0,
0,
0,
0,
0,
0,
0,
0,
0,
0,
0,
0,
0,
0,
0,
0,
0,
0,
0,
0,
0,
0,
0,
0,
0,
0,
0,
0,
0,
0,
0,
0,
0,
0,
0,
0,
0,
0,
0,
0,
0,
0,
0,
0,
0,
0,
0,
0,
0,
0,
0,
0,
0,
0,
0,
0,
0,
0,
0,
0,
0,
0,
0,
0,
0,
0,
0,
0,
0,
0,
0,
0,
0,
0,
0,
0,
0,
0,
0,
0,
0,
0,
0,
0,
0,
0,
0,
0,
0,
0,
0,
0,
0,
0,
0,
0,
0,
0,
0,
0,
0,
0,
0,
0,
0,
0,
0,
0,
0,
0,
0,
0,
0,
0,
0,
0,
0,
0,
0,
#ENDOFDATA   :

File: SPI MM1 Diopside[1][4].msa
#FORMAT      : EMSA/MAS Spectral Data File
#VERSION     : 1.0
#TITLE       : SPI MM1dup Diopside[1][all]
#DATE        : 12-MAR-2025
#TIME        : 15:37
#OWNER       : Unknown
#NPOINTS     : 4096
#NCOLUMNS    : 1
#XUNITS      : eV
#YUNITS      : counts
#DATATYPE    : Y
#XPERCHAN    : 9.99778
#OFFSET      : 1.69135
#BEAMKV      : 20
#SIGNALTYPE  : EDS
#ELEVANGLE   : 35
#AZIMANGLE   : 0
#LIVETIME    : 239.75
#REALTIME    : 255.147
#PROBECUR    : 1.02695
#TAUWIND     : 0
#TDEADLYR    : 0
#TACTLYR     : 0.045
#TALWIND     : 0.025
#CHOFFSET    : 0.0
#XLABEL      : Energy (eV)
#YLABEL      : Counts
#XPOSITION   : 2.14221
#YPOSITION   : 1.50262
#ZPOSITION   : 31.03608
#EDSDET      : SD
##SPECIMEN   : SPI MM1dup Diopside[1][all]
##D2STDCMP   : Diopside,(O:44.3298),(Mg:11.2237),(Si:25.939),(Ca:18.5075)
##DET_HASH   : 12273538-fd48-a23f-0a19-f1e6fa85caef
##CALIB_HASH : 6abaa72c-aa41-8738-0be9-f592914732f3
##WORKING    : 15.0 mm
##DET_NAME   : EDAX All
##DET_MODE   : MediumLE
#SPECTRUM    :
27,
157,
9982,
4038,
35737,
2574,
2631,
3534,
4398,
80623,
4057,
5383,
63515,
30069,
3393,
2617,
3042,
2656,
2516,
2581,
2553,
2534,
2469,
2295,
2243,
2830,
44858,
15766,
3754,
8364,
1710,
1473,
1705,
1497,
1411,
1406,
1418,
1306,
1346,
1448,
1198,
1171,
1206,
1111,
1008,
1220,
1958,
965,
884,
949,
1026,
868,
839,
839,
741,
706,
725,
683,
680,
625,
645,
625,
549,
538,
543,
523,
479,
455,
469,
461,
466,
442,
396,
387,
393,
340,
355,
355,
293,
324,
326,
300,
294,
274,
256,
242,
223,
229,
227,
201,
190,
166,
182,
190,
148,
164,
160,
128,
137,
145,
114,
120,
131,
122,
85,
104,
73,
85,
82,
68,
77,
64,
71,
62,
56,
58,
54,
43,
43,
46,
39,
35,
32,
24,
23,
26,
25,
22,
16,
13,
11,
13,
14,
9,
11,
8,
3,
8,
1,
7,
3,
0,
1,
1,
1,
0,
0,
0,
0,
0,
0,
0,
0,
0,
0,
0,
1,
0,
0,
0,
0,
0,
0,
0,
0,
0,
0,
0,
0,
0,
0,
0,
0,
0,
0,
0,
0,
0,
0,
0,
0,
0,
0,
0,
0,
0,
0,
0,
0,
0,
0,
0,
0,
0,
0,
0,
0,
0,
0,
0,
0,
0,
0,
0,
0,
0,
0,
0,
0,
0,
0,
0,
0,
0,
0,
0,
0,
0,
0,
0,
0,
0,
0,
0,
0,
0,
0,
0,
0,
0,
0,
0,
0,
0,
0,
0,
0,
0,
0,
0,
0,
0,
0,
0,
0,
0,
0,
0,
0,
0,
0,
0,
0,
0,
0,
0,
0,
0,
0,
0,
0,
0,
0,
0,
0,
0,
0,
0,
0,
0,
0,
0,
0,
0,
0,
0,
0,
0,
0,
0,
0,
0,
0,
0,
0,
0,
0,
0,
0,
0,
0,
0,
0,
0,
#ENDOFDATA   :

File: SPI MM1 Diopside[3][4].msa
#FORMAT      : EMSA/MAS Spectral Data File
#VERSION     : 1.0
#TITLE       : SPI MM1dup Diopside[3][all]
#DATE        : 12-MAR-2025
#TIME        : 15:39
#OWNER       : Unknown
#NPOINTS     : 4096
#NCOLUMNS    : 1
#XUNITS      : eV
#YUNITS      : counts
#DATATYPE    : Y
#XPERCHAN    : 9.99778
#OFFSET      : 1.69135
#BEAMKV      : 20
#SIGNALTYPE  : EDS
#ELEVANGLE   : 35
#AZIMANGLE   : 0
#LIVETIME    : 239.855
#REALTIME    : 255.2693
#PROBECUR    : 1.02695
#TAUWIND     : 0
#TDEADLYR    : 0
#TACTLYR     : 0.045
#TALWIND     : 0.025
#CHOFFSET    : 0.0
#XLABEL      : Energy (eV)
#YLABEL      : Counts
#XPOSITION   : 2.1744
#YPOSITION   : 1.45927
#ZPOSITION   : 31.03608
#EDSDET      : SD
##SPECIMEN   : SPI MM1dup Diopside[3][all]
##D2STDCMP   : Diopside,(O:44.3298),(Mg:11.2237),(Si:25.939),(Ca:18.5075)
##DET_HASH   : 12273538-fd48-a23f-0a19-f1e6fa85caef
##CALIB_HASH : 6abaa72c-aa41-8738-0be9-f592914732f3
##WORKING    : 15.0 mm
##DET_NAME   : EDAX All
##DET_MODE   : MediumLE
#SPECTRUM    :
21,
176,
10139,
3947,
35743,
2596,
2728,
3696,
4466,
81494,
4104,
5358,
63273,
29988,
3341,
2689,
2972,
2616,
2714,
2551,
2468,
2535,
2486,
2405,
2294,
2781,
44937,
16069,
3615,
8338,
1730,
1573,
1566,
1534,
1410,
1451,
1361,
1321,
1369,
1463,
1213,
1200,
1255,
1136,
1041,
1313,
1866,
937,
906,
894,
1002,
908,
774,
849,
722,
671,
733,
694,
637,
668,
586,
624,
607,
580,
558,
518,
519,
462,
479,
450,
426,
435,
420,
416,
379,
357,
351,
360,
321,
331,
300,
288,
297,
288,
253,
244,
252,
203,
223,
222,
191,
183,
200,
174,
142,
141,
151,
139,
129,
122,
131,
121,
127,
113,
127,
96,
97,
73,
70,
88,
57,
67,
58,
55,
52,
39,
49,
47,
43,
39,
48,
39,
37,
27,
17,
23,
20,
16,
11,
15,
17,
10,
10,
8,
12,
5,
6,
11,
4,
2,
3,
1,
1,
0,
0,
0,
0,
0,
0,
0,
1,
0,
0,
0,
0,
1,
0,
0,
0,
0,
0,
0,
0,
0,
0,
0,
0,
0,
0,
0,
0,
0,
0,
0,
0,
0,
1,
0,
0,
0,
0,
0,
0,
0,
0,
0,
0,
0,
0,
0,
0,
0,
0,
0,
0,
0,
0,
0,
0,
0,
0,
0,
0,
0,
0,
0,
0,
0,
0,
0,
0,
0,
0,
0,
0,
0,
0,
0,
0,
0,
0,
0,
0,
0,
0,
0,
0,
0,
0,
0,
0,
0,
0,
0,
0,
0,
0,
0,
0,
0,
0,
0,
0,
0,
0,
0,
0,
0,
0,
0,
0,
0,
0,
0,
0,
0,
0,
0,
0,
0,
0,
0,
0,
0,
0,
0,
0,
0,
0,
0,
0,
0,
0,
0,
0,
0,
0,
0,
0,
0,
0,
0,
0,
0,
0,
0,
0,
0,
0,
0,
0,
0,
0,
0,
#ENDOFDATA   :

File: SPI MM1 Diopside[4][4].msa
#FORMAT      : EMSA/MAS Spectral Data File
#VERSION     : 1.0
#TITLE       : SPI MM1dup Diopside[4][all]
#DATE        : 12-MAR-2025
#TIME        : 15:40
#OWNER       : Unknown
#NPOINTS     : 4096
#NCOLUMNS    : 1
#XUNITS      : eV
#YUNITS      : counts
#DATATYPE    : Y
#XPERCHAN    : 9.99778
#OFFSET      : 1.69135
#BEAMKV      : 20
#SIGNALTYPE  : EDS
#ELEVANGLE   : 35
#AZIMANGLE   : 0
#LIVETIME    : 239.866
#REALTIME    : 255.274
#PROBECUR    : 1.02695
#TAUWIND     : 0
#TDEADLYR    : 0
#TACTLYR     : 0.045
#TALWIND     : 0.025
#CHOFFSET    : 0.0
#XLABEL      : Energy (eV)
#YLABEL      : Counts
#XPOSITION   : 2.119
#YPOSITION   : 1.43683
#ZPOSITION   : 31.03608
#EDSDET      : SD
##SPECIMEN   : SPI MM1dup Diopside[4][all]
##D2STDCMP   : Diopside,(O:44.3298),(Mg:11.2237),(Si:25.939),(Ca:18.5075)
##DET_HASH   : 12273538-fd48-a23f-0a19-f1e6fa85caef
##CALIB_HASH : 6abaa72c-aa41-8738-0be9-f592914732f3
##WORKING    : 15.0 mm
##DET_NAME   : EDAX All
##DET_MODE   : MediumLE
#SPECTRUM    :
36,
149,
10392,
3996,
35629,
2551,
2745,
3499,
4380,
82324,
4134,
5369,
63473,
30145,
3522,
2620,
2992,
2634,
2654,
2547,
2514,
2480,
2445,
2356,
2227,
2867,
44494,
15690,
3650,
8256,
1670,
1606,
1596,
1506,
1384,
1458,
1424,
1292,
1335,
1448,
1241,
1138,
1205,
1099,
1020,
1310,
1931,
925,
935,
909,
938,
862,
830,
863,
742,
748,
669,
722,
701,
646,
576,
601,
591,
584,
558,
515,
529,
464,
510,
454,
448,
417,
397,
384,
402,
378,
372,
354,
319,
326,
320,
313,
286,
254,
261,
230,
219,
202,
224,
184,
192,
183,
185,
180,
169,
160,
161,
143,
137,
136,
112,
123,
111,
106,
115,
84,
83,
80,
85,
56,
67,
81,
60,
57,
48,
58,
45,
45,
40,
33,
32,
26,
22,
29,
29,
19,
20,
19,
19,
17,
7,
11,
9,
10,
7,
4,
8,
5,
5,
6,
2,
2,
2,
1,
0,
0,
0,
0,
0,
1,
0,
0,
0,
0,
0,
0,
1,
0,
0,
0,
0,
0,
0,
0,
0,
0,
0,
0,
0,
0,
0,
0,
0,
0,
0,
0,
0,
0,
0,
0,
0,
0,
0,
0,
0,
0,
0,
0,
0,
0,
0,
0,
0,
0,
0,
0,
0,
0,
0,
0,
0,
0,
0,
0,
0,
0,
0,
0,
0,
0,
0,
0,
0,
0,
0,
0,
0,
0,
0,
0,
0,
0,
0,
0,
0,
0,
0,
0,
0,
0,
0,
0,
0,
0,
0,
0,
0,
0,
0,
0,
0,
0,
0,
0,
0,
0,
0,
0,
0,
0,
0,
0,
0,
0,
0,
0,
0,
0,
0,
0,
0,
0,
0,
0,
0,
0,
0,
0,
0,
0,
0,
0,
0,
0,
0,
0,
0,
0,
0,
0,
0,
0,
0,
0,
0,
0,
0,
0,
0,
0,
0,
0,
0,
0,
#ENDOFDATA   :

File: SPI MM1 Diopside[5][4].msa
#FORMAT      : EMSA/MAS Spectral Data File
#VERSION     : 1.0
#TITLE       : SPI MM1dup Diopside[5][all]
#DATE        : 12-MAR-2025
#TIME        : 15:41
#OWNER       : Unknown
#NPOINTS     : 4096
#NCOLUMNS    : 1
#XUNITS      : eV
#YUNITS      : counts
#DATATYPE    : Y
#XPERCHAN    : 9.99778
#OFFSET      : 1.69135
#BEAMKV      : 20
#SIGNALTYPE  : EDS
#ELEVANGLE   : 35
#AZIMANGLE   : 0
#LIVETIME    : 239.882
#REALTIME    : 255.2746
#PROBECUR    : 1.02695
#TAUWIND     : 0
#TDEADLYR    : 0
#TACTLYR     : 0.045
#TALWIND     : 0.025
#CHOFFSET    : 0.0
#XLABEL      : Energy (eV)
#YLABEL      : Counts
#XPOSITION   : 2.18968
#YPOSITION   : 1.42283
#ZPOSITION   : 31.03608
#EDSDET      : SD
##SPECIMEN   : SPI MM1dup Diopside[5][all]
##D2STDCMP   : Diopside,(O:44.3298),(Mg:11.2237),(Si:25.939),(Ca:18.5075)
##DET_HASH   : 12273538-fd48-a23f-0a19-f1e6fa85caef
##CALIB_HASH : 6abaa72c-aa41-8738-0be9-f592914732f3
##WORKING    : 15.0 mm
##DET_NAME   : EDAX All
##DET_MODE   : MediumLE
#SPECTRUM    :
18,
160,
10297,
4010,
35739,
2591,
2761,
3502,
4432,
81257,
3986,
5423,
62704,
30149,
3394,
2635,
2972,
2611,
2627,
2538,
2557,
2432,
2430,
2277,
2233,
2800,
44535,
15942,
3800,
8218,
1668,
1441,
1615,
1417,
1446,
1467,
1343,
1307,
1316,
1453,
1140,
1175,
1189,
1037,
1022,
1352,
1869,
925,
933,
910,
970,
890,
766,
860,
793,
763,
735,
678,
675,
643,
622,
642,
586,
580,
556,
551,
517,
459,
464,
474,
452,
395,
395,
400,
397,
348,
323,
356,
356,
338,
289,
302,
273,
296,
268,
244,
218,
241,
196,
201,
204,
194,
181,
152,
185,
126,
153,
156,
139,
152,
119,
129,
111,
117,
85,
97,
65,
75,
92,
81,
58,
71,
56,
68,
51,
47,
47,
33,
52,
34,
41,
25,
30,
24,
31,
16,
19,
23,
23,
16,
15,
12,
15,
21,
13,
7,
4,
10,
6,
3,
2,
2,
1,
1,
0,
0,
0,
0,
0,
0,
0,
0,
0,
0,
0,
0,
0,
0,
0,
0,
0,
0,
0,
1,
0,
0,
0,
0,
0,
0,
0,
0,
0,
0,
0,
0,
0,
0,
0,
0,
0,
0,
0,
0,
0,
0,
0,
0,
0,
0,
0,
0,
1,
0,
0,
0,
0,
0,
0,
0,
0,
0,
0,
0,
0,
0,
0,
0,
0,
0,
0,
0,
0,
0,
0,
0,
0,
0,
0,
0,
0,
0,
0,
0,
0,
0,
0,
0,
0,
0,
0,
0,
0,
0,
0,
0,
0,
0,
0,
0,
0,
0,
0,
0,
0,
0,
0,
0,
0,
0,
0,
0,
0,
0,
0,
0,
0,
0,
0,
0,
0,
0,
0,
0,
0,
0,
0,
0,
0,
0,
0,
0,
0,
0,
0,
0,
0,
0,
0,
0,
0,
0,
0,
0,
0,
0,
0,
0,
0,
0,
0,
0,
0,
0,
#ENDOFDATA   :

File: SPI MM1 Diopside[6][4].msa
#FORMAT      : EMSA/MAS Spectral Data File
#VERSION     : 1.0
#TITLE       : SPI MM1dup Diopside[6][all]
#DATE        : 12-MAR-2025
#TIME        : 15:42
#OWNER       : Unknown
#NPOINTS     : 4096
#NCOLUMNS    : 1
#XUNITS      : eV
#YUNITS      : counts
#DATATYPE    : Y
#XPERCHAN    : 9.99778
#OFFSET      : 1.69135
#BEAMKV      : 20
#SIGNALTYPE  : EDS
#ELEVANGLE   : 35
#AZIMANGLE   : 0
#LIVETIME    : 239.745
#REALTIME    : 255.146
#PROBECUR    : 1.02695
#TAUWIND     : 0
#TDEADLYR    : 0
#TACTLYR     : 0.045
#TALWIND     : 0.025
#CHOFFSET    : 0.0
#XLABEL      : Energy (eV)
#YLABEL      : Counts
#XPOSITION   : 2.1407
#YPOSITION   : 1.50702
#ZPOSITION   : 31.03608
#EDSDET      : SD
##SPECIMEN   : SPI MM1dup Diopside[6][all]
##D2STDCMP   : Diopside,(O:44.3298),(Mg:11.2237),(Si:25.939),(Ca:18.5075)
##DET_HASH   : 12273538-fd48-a23f-0a19-f1e6fa85caef
##CALIB_HASH : 6abaa72c-aa41-8738-0be9-f592914732f3
##WORKING    : 15.0 mm
##DET_NAME   : EDAX All
##DET_MODE   : MediumLE
#SPECTRUM    :
21,
161,
10281,
4040,
35427,
2567,
2648,
3589,
4382,
81410,
3915,
5414,
63535,
29903,
3492,
2611,
3001,
2635,
2647,
2582,
2497,
2561,
2431,
2381,
2246,
2808,
44625,
15591,
3618,
8176,
1722,
1559,
1576,
1471,
1367,
1401,
1388,
1322,
1249,
1433,
1166,
1188,
1230,
1160,
1089,
1239,
1908,
970,
881,
931,
981,
914,
782,
860,
736,
745,
742,
703,
642,
645,
649,
640,
568,
514,
556,
488,
447,
480,
476,
444,
445,
425,
430,
395,
367,
375,
332,
319,
354,
338,
324,
297,
281,
259,
258,
233,
252,
217,
228,
193,
209,
183,
179,
156,
172,
170,
131,
132,
141,
139,
122,
123,
110,
119,
84,
100,
78,
73,
76,
75,
61,
58,
68,
60,
45,
62,
56,
49,
40,
47,
39,
40,
35,
21,
28,
23,
23,
22,
16,
20,
18,
12,
10,
9,
6,
6,
6,
8,
6,
2,
2,
1,
0,
1,
0,
1,
0,
0,
0,
0,
0,
0,
0,
0,
0,
0,
0,
0,
1,
0,
0,
0,
0,
0,
0,
0,
0,
0,
0,
0,
0,
0,
0,
0,
0,
0,
0,
0,
0,
0,
0,
0,
0,
0,
0,
0,
0,
0,
0,
0,
0,
0,
1,
0,
0,
0,
0,
0,
0,
0,
0,
0,
0,
0,
0,
0,
0,
0,
0,
0,
0,
0,
0,
0,
0,
0,
0,
0,
0,
0,
0,
0,
0,
0,
0,
0,
0,
0,
0,
0,
0,
0,
0,
0,
0,
0,
0,
0,
0,
0,
0,
0,
0,
0,
0,
0,
0,
0,
0,
0,
0,
0,
0,
0,
0,
0,
0,
0,
0,
0,
0,
0,
0,
0,
0,
0,
0,
0,
0,
0,
0,
0,
0,
0,
0,
0,
0,
0,
0,
0,
0,
0,
0,
0,
0,
0,
0,
0,
0,
0,
0,
0,
0,
0,
#ENDOFDATA   :

File: SPI MM1 Diopside[7][4].msa
#FORMAT      : EMSA/MAS Spectral Data File
#VERSION     : 1.0
#TITLE       : SPI MM1dup Diopside[7][all]
#DATE        : 12-MAR-2025
#TIME        : 15:44
#OWNER       : Unknown
#NPOINTS     : 4096
#NCOLUMNS    : 1
#XUNITS      : eV
#YUNITS      : counts
#DATATYPE    : Y
#XPERCHAN    : 9.99778
#OFFSET      : 1.69135
#BEAMKV      : 20
#SIGNALTYPE  : EDS
#ELEVANGLE   : 35
#AZIMANGLE   : 0
#LIVETIME    : 239.799
#REALTIME    : 255.212
#PROBECUR    : 1.02695
#TAUWIND     : 0
#TDEADLYR    : 0
#TACTLYR     : 0.045
#TALWIND     : 0.025
#CHOFFSET    : 0.0
#XLABEL      : Energy (eV)
#YLABEL      : Counts
#XPOSITION   : 2.13231
#YPOSITION   : 1.45676
#ZPOSITION   : 31.03608
#EDSDET      : SD
##SPECIMEN   : SPI MM1dup Diopside[7][all]
##D2STDCMP   : Diopside,(O:44.3298),(Mg:11.2237),(Si:25.939),(Ca:18.5075)
##DET_HASH   : 12273538-fd48-a23f-0a19-f1e6fa85caef
##CALIB_HASH : 6abaa72c-aa41-8738-0be9-f592914732f3
##WORKING    : 15.0 mm
##DET_NAME   : EDAX All
##DET_MODE   : MediumLE
#SPECTRUM    :
25,
157,
10292,
3918,
35572,
2556,
2721,
3584,
4354,
82292,
4133,
5417,
63307,
29713,
3465,
2558,
3025,
2649,
2540,
2612,
2599,
2582,
2352,
2337,
2289,
2841,
44824,
15782,
3705,
8454,
1681,
1538,
1507,
1432,
1437,
1414,
1384,
1328,
1337,
1335,
1254,
1101,
1205,
1135,
1069,
1275,
1916,
1008,
960,
923,
954,
886,
846,
870,
717,
708,
714,
708,
676,
673,
656,
642,
643,
585,
484,
533,
517,
535,
463,
444,
446,
407,
416,
414,
398,
364,
375,
322,
333,
299,
304,
288,
288,
255,
276,
255,
230,
250,
204,
224,
203,
177,
178,
149,
177,
173,
171,
148,
140,
119,
126,
134,
96,
112,
102,
86,
96,
79,
73,
74,
77,
79,
60,
65,
48,
58,
53,
52,
47,
35,
38,
35,
38,
29,
32,
26,
18,
18,
18,
17,
13,
17,
10,
7,
5,
9,
4,
4,
13,
0,
5,
2,
2,
0,
0,
0,
0,
0,
0,
0,
0,
0,
0,
1,
0,
0,
0,
0,
0,
0,
0,
0,
0,
0,
0,
0,
0,
0,
0,
0,
0,
0,
0,
0,
0,
0,
0,
0,
0,
0,
0,
0,
0,
0,
0,
0,
0,
0,
0,
0,
0,
0,
0,
0,
0,
0,
0,
0,
0,
0,
0,
0,
0,
0,
0,
0,
0,
0,
0,
0,
0,
0,
0,
0,
0,
0,
0,
0,
0,
0,
0,
0,
0,
0,
0,
0,
0,
0,
0,
0,
0,
0,
0,
0,
0,
0,
0,
0,
0,
0,
0,
0,
0,
0,
0,
0,
0,
0,
0,
0,
0,
0,
0,
0,
0,
0,
0,
0,
0,
0,
0,
0,
0,
0,
0,
0,
0,
0,
0,
0,
0,
0,
0,
0,
0,
0,
0,
0,
0,
0,
0,
0,
0,
0,
0,
0,
0,
0,
0,
0,
0,
0,
0,
0,
#ENDOFDATA   :

File: SPI MM1 Dolomite[2][4].msa
#FORMAT      : EMSA/MAS Spectral Data File
#VERSION     : 1.0
#TITLE       : SPI MM1dup Dolomite[2][all]
#DATE        : 12-MAR-2025
#TIME        : 15:47
#OWNER       : Unknown
#NPOINTS     : 4096
#NCOLUMNS    : 1
#XUNITS      : eV
#YUNITS      : counts
#DATATYPE    : Y
#XPERCHAN    : 9.99778
#OFFSET      : 1.69135
#BEAMKV      : 20
#SIGNALTYPE  : EDS
#ELEVANGLE   : 35
#AZIMANGLE   : 0
#LIVETIME    : 239.862
#REALTIME    : 250.732
#PROBECUR    : 1.02695
#TAUWIND     : 0
#TDEADLYR    : 0
#TACTLYR     : 0.045
#TALWIND     : 0.025
#CHOFFSET    : 0.0
#XLABEL      : Energy (eV)
#YLABEL      : Counts
#XPOSITION   : -0.17938
#YPOSITION   : 2.012
#ZPOSITION   : 31.03608
#EDSDET      : SD
##SPECIMEN   : SPI MM1dup Dolomite[2][all]
##DET_HASH   : 12273538-fd48-a23f-0a19-f1e6fa85caef
##CALIB_HASH : 6abaa72c-aa41-8738-0be9-f592914732f3
##WORKING    : 15.0 mm
##DET_NAME   : EDAX All
##DET_MODE   : MediumLE
#SPECTRUM    :
25,
254,
26797,
3707,
35466,
1660,
2073,
2482,
3550,
86595,
2813,
3122,
3227,
3488,
4036,
2878,
2953,
2725,
2542,
2491,
2462,
2370,
2340,
2159,
2140,
2561,
55169,
19143,
3914,
9557,
1564,
1372,
1295,
1270,
1181,
1251,
1210,
1137,
1095,
993,
1001,
987,
1022,
926,
851,
875,
973,
802,
752,
816,
767,
729,
680,
715,
642,
640,
570,
560,
511,
516,
518,
513,
499,
455,
451,
447,
391,
385,
400,
419,
350,
374,
308,
296,
313,
268,
302,
303,
279,
245,
232,
240,
193,
198,
191,
191,
202,
168,
176,
143,
150,
163,
157,
136,
132,
142,
123,
114,
106,
84,
95,
82,
80,
87,
94,
70,
73,
63,
61,
52,
53,
54,
44,
37,
39,
40,
38,
32,
27,
36,
34,
28,
25,
19,
15,
12,
13,
31,
14,
14,
13,
10,
8,
11,
1,
5,
5,
3,
3,
3,
2,
0,
0,
0,
0,
0,
0,
0,
1,
0,
0,
0,
0,
0,
0,
0,
0,
0,
0,
0,
0,
0,
0,
0,
0,
0,
0,
0,
0,
0,
1,
0,
0,
0,
0,
0,
0,
0,
1,
0,
0,
0,
0,
0,
0,
0,
0,
0,
0,
0,
0,
0,
0,
0,
0,
0,
0,
0,
0,
0,
0,
0,
0,
0,
0,
0,
0,
0,
0,
0,
0,
0,
0,
0,
0,
0,
0,
0,
0,
0,
0,
0,
0,
0,
0,
0,
0,
0,
0,
0,
0,
0,
0,
0,
0,
0,
0,
0,
0,
0,
0,
0,
0,
0,
0,
0,
0,
0,
0,
0,
0,
0,
0,
0,
0,
0,
0,
0,
0,
0,
0,
0,
0,
0,
0,
0,
0,
0,
0,
0,
0,
0,
0,
0,
0,
0,
0,
0,
0,
0,
0,
0,
0,
0,
0,
0,
0,
0,
0,
0,
0,
0,
0,
0,
#ENDOFDATA   :

File: SPI MM1 Dolomite[4][4].msa
#FORMAT      : EMSA/MAS Spectral Data File
#VERSION     : 1.0
#TITLE       : SPI MM1dup Dolomite[4][all]
#DATE        : 12-MAR-2025
#TIME        : 15:49
#OWNER       : Unknown
#NPOINTS     : 4096
#NCOLUMNS    : 1
#XUNITS      : eV
#YUNITS      : counts
#DATATYPE    : Y
#XPERCHAN    : 9.99778
#OFFSET      : 1.69135
#BEAMKV      : 20
#SIGNALTYPE  : EDS
#ELEVANGLE   : 35
#AZIMANGLE   : 0
#LIVETIME    : 239.783
#REALTIME    : 250.724
#PROBECUR    : 1.02695
#TAUWIND     : 0
#TDEADLYR    : 0
#TACTLYR     : 0.045
#TALWIND     : 0.025
#CHOFFSET    : 0.0
#XLABEL      : Energy (eV)
#YLABEL      : Counts
#XPOSITION   : -0.06651
#YPOSITION   : 1.94004
#ZPOSITION   : 31.03608
#EDSDET      : SD
##SPECIMEN   : SPI MM1dup Dolomite[4][all]
##DET_HASH   : 12273538-fd48-a23f-0a19-f1e6fa85caef
##CALIB_HASH : 6abaa72c-aa41-8738-0be9-f592914732f3
##WORKING    : 15.0 mm
##DET_NAME   : EDAX All
##DET_MODE   : MediumLE
#SPECTRUM    :
22,
207,
27344,
3657,
35434,
1794,
2048,
2430,
3580,
86154,
2993,
3292,
3336,
3524,
3881,
2829,
2939,
2758,
2644,
2573,
2511,
2490,
2326,
2257,
2120,
2594,
56229,
19411,
3926,
9640,
1543,
1304,
1337,
1304,
1247,
1250,
1178,
1120,
1092,
1006,
1001,
1036,
999,
930,
907,
951,
1115,
766,
793,
785,
814,
731,
735,
708,
656,
592,
567,
573,
549,
537,
549,
506,
502,
481,
421,
447,
431,
482,
412,
370,
383,
344,
317,
345,
315,
313,
282,
283,
259,
289,
290,
207,
203,
219,
213,
171,
194,
185,
177,
162,
161,
162,
125,
148,
116,
117,
127,
116,
114,
94,
104,
98,
90,
77,
86,
72,
67,
57,
62,
59,
57,
57,
46,
46,
37,
34,
44,
31,
26,
23,
34,
34,
26,
22,
31,
16,
15,
18,
7,
10,
13,
4,
8,
8,
5,
7,
5,
4,
3,
6,
1,
2,
2,
1,
0,
0,
0,
0,
1,
0,
0,
0,
0,
0,
0,
0,
0,
0,
0,
0,
0,
0,
0,
0,
0,
0,
0,
0,
0,
0,
0,
0,
0,
0,
0,
1,
0,
0,
0,
0,
0,
0,
0,
0,
0,
0,
0,
0,
0,
0,
0,
0,
0,
0,
0,
0,
0,
0,
0,
0,
0,
0,
0,
0,
0,
0,
0,
0,
0,
0,
0,
0,
0,
0,
0,
0,
0,
0,
0,
0,
0,
0,
0,
0,
0,
0,
0,
0,
0,
0,
0,
0,
0,
0,
0,
0,
0,
0,
0,
0,
0,
0,
0,
0,
0,
0,
0,
0,
0,
0,
0,
0,
0,
0,
0,
0,
0,
0,
0,
0,
0,
0,
0,
0,
0,
0,
0,
0,
0,
0,
0,
0,
0,
0,
0,
0,
0,
0,
0,
0,
0,
0,
0,
0,
0,
0,
0,
0,
0,
0,
0,
0,
0,
0,
#ENDOFDATA   :

File: SPI MM1 Dolomite[5][4].msa
#FORMAT      : EMSA/MAS Spectral Data File
#VERSION     : 1.0
#TITLE       : SPI MM1dup Dolomite[5][all]
#DATE        : 12-MAR-2025
#TIME        : 15:50
#OWNER       : Unknown
#NPOINTS     : 4096
#NCOLUMNS    : 1
#XUNITS      : eV
#YUNITS      : counts
#DATATYPE    : Y
#XPERCHAN    : 9.99778
#OFFSET      : 1.69135
#BEAMKV      : 20
#SIGNALTYPE  : EDS
#ELEVANGLE   : 35
#AZIMANGLE   : 0
#LIVETIME    : 239.635
#REALTIME    : 250.5396
#PROBECUR    : 1.02695
#TAUWIND     : 0
#TDEADLYR    : 0
#TACTLYR     : 0.045
#TALWIND     : 0.025
#CHOFFSET    : 0.0
#XLABEL      : Energy (eV)
#YLABEL      : Counts
#XPOSITION   : -0.09479
#YPOSITION   : 1.96023
#ZPOSITION   : 31.03608
#EDSDET      : SD
##SPECIMEN   : SPI MM1dup Dolomite[5][all]
##DET_HASH   : 12273538-fd48-a23f-0a19-f1e6fa85caef
##CALIB_HASH : 6abaa72c-aa41-8738-0be9-f592914732f3
##WORKING    : 15.0 mm
##DET_NAME   : EDAX All
##DET_MODE   : MediumLE
#SPECTRUM    :
24,
206,
26242,
3728,
35403,
1649,
1998,
2471,
3381,
84410,
3224,
4472,
3350,
3399,
3944,
2888,
2801,
2818,
2630,
2537,
2386,
2312,
2347,
2345,
2042,
2551,
54712,
18801,
3894,
9389,
1510,
1397,
1296,
1283,
1278,
1205,
1154,
1185,
1084,
1000,
1030,
1003,
1003,
892,
865,
963,
1038,
771,
764,
775,
731,
691,
678,
697,
677,
623,
612,
571,
558,
513,
518,
524,
469,
478,
454,
458,
443,
412,
406,
389,
398,
342,
323,
318,
330,
299,
301,
270,
283,
267,
252,
227,
262,
226,
227,
191,
199,
182,
187,
160,
163,
175,
157,
138,
117,
114,
120,
120,
119,
98,
80,
89,
83,
95,
83,
77,
86,
68,
52,
56,
63,
61,
51,
44,
43,
34,
29,
43,
25,
28,
24,
26,
22,
28,
17,
25,
20,
14,
15,
11,
11,
9,
7,
8,
16,
7,
4,
6,
4,
4,
1,
1,
1,
0,
1,
0,
0,
0,
1,
0,
0,
0,
0,
0,
0,
0,
0,
0,
0,
0,
0,
0,
0,
0,
0,
0,
0,
0,
0,
0,
0,
0,
0,
0,
0,
0,
1,
0,
0,
0,
0,
0,
0,
0,
0,
0,
0,
0,
0,
0,
0,
0,
0,
0,
0,
0,
0,
0,
0,
0,
0,
0,
0,
0,
0,
0,
0,
0,
0,
0,
0,
0,
0,
0,
0,
0,
0,
0,
0,
0,
0,
0,
0,
0,
0,
0,
0,
0,
0,
0,
0,
0,
0,
0,
0,
0,
0,
0,
0,
0,
0,
0,
0,
0,
0,
0,
0,
0,
0,
0,
0,
0,
0,
0,
0,
0,
0,
0,
0,
0,
0,
0,
0,
0,
0,
0,
0,
0,
0,
0,
0,
0,
0,
0,
0,
0,
0,
0,
0,
0,
0,
0,
0,
0,
0,
0,
0,
0,
0,
0,
0,
0,
0,
0,
#ENDOFDATA   :