Folder: spex_quant/N132962/Quantification/20 keV/MMM1 (part 8)

File: SPI MM1 Kaersutite[2][4].msa
#FORMAT      : EMSA/MAS Spectral Data File
#VERSION     : 1.0
#TITLE       : SPI MM1dup Kaersutite[2][all]
#DATE        : 12-MAR-2025
#TIME        : 16:22
#OWNER       : Unknown
#NPOINTS     : 4096
#NCOLUMNS    : 1
#XUNITS      : eV
#YUNITS      : counts
#DATATYPE    : Y
#XPERCHAN    : 9.99778
#OFFSET      : 1.69135
#BEAMKV      : 20
#SIGNALTYPE  : EDS
#ELEVANGLE   : 35
#AZIMANGLE   : 0
#LIVETIME    : 239.623
#REALTIME    : 254.128
#PROBECUR    : 1.02709
#TAUWIND     : 0
#TDEADLYR    : 0
#TACTLYR     : 0.045
#TALWIND     : 0.025
#CHOFFSET    : 0.0
#XLABEL      : Energy (eV)
#YLABEL      : Counts
#XPOSITION   : -1.62776
#YPOSITION   : 3.57384
#ZPOSITION   : 31.03608
#EDSDET      : SD
##SPECIMEN   : SPI MM1dup Kaersutite[2][all]
##DET_HASH   : 12273538-fd48-a23f-0a19-f1e6fa85caef
##CALIB_HASH : 6abaa72c-aa41-8738-0be9-f592914732f3
##WORKING    : 15.0 mm
##DET_NAME   : EDAX All
##DET_MODE   : MediumLE
#SPECTRUM    :
26,
169,
10037,
5746,
42658,
8379,
2436,
4825,
4232,
52710,
7011,
20428,
40904,
20632,
3216,
2737,
2923,
2749,
2677,
2711,
2613,
2594,
2437,
2924,
4711,
2653,
21907,
8205,
2812,
4906,
1909,
1775,
10391,
2646,
1593,
2775,
1667,
1403,
1429,
1451,
1309,
1249,
1484,
1144,
1191,
4942,
13369,
1125,
958,
1019,
2287,
1626,
832,
822,
848,
712,
746,
666,
725,
678,
666,
664,
607,
595,
538,
535,
535,
487,
486,
525,
460,
425,
433,
411,
402,
368,
371,
369,
355,
368,
293,
295,
274,
293,
287,
233,
247,
226,
215,
234,
184,
192,
182,
190,
161,
173,
156,
158,
159,
142,
119,
139,
107,
123,
116,
122,
96,
85,
69,
75,
65,
66,
56,
53,
62,
64,
42,
40,
46,
43,
42,
32,
30,
32,
30,
24,
28,
21,
16,
16,
14,
4,
15,
13,
10,
5,
5,
3,
2,
3,
4,
1,
0,
2,
0,
0,
0,
1,
0,
0,
0,
0,
0,
1,
0,
0,
0,
0,
0,
0,
0,
0,
0,
0,
0,
0,
0,
0,
0,
0,
0,
0,
0,
0,
0,
0,
0,
0,
0,
0,
0,
0,
0,
0,
0,
0,
0,
0,
0,
0,
1,
0,
0,
0,
0,
0,
0,
0,
0,
0,
0,
0,
0,
0,
0,
0,
0,
0,
0,
0,
0,
0,
0,
0,
0,
0,
0,
0,
0,
0,
0,
0,
0,
0,
0,
0,
0,
0,
0,
0,
0,
0,
0,
0,
0,
0,
0,
0,
0,
0,
0,
0,
0,
0,
0,
0,
0,
0,
0,
0,
0,
0,
0,
0,
0,
0,
0,
0,
0,
0,
0,
0,
0,
0,
0,
0,
0,
0,
0,
0,
0,
0,
0,
0,
0,
0,
0,
0,
0,
0,
0,
0,
0,
0,
0,
0,
0,
0,
0,
0,
0,
0,
0,
0,
#ENDOFDATA   :

File: SPI MM1 Kaersutite[4][4].msa
#FORMAT      : EMSA/MAS Spectral Data File
#VERSION     : 1.0
#TITLE       : SPI MM1dup Kaersutite[4][all]
#DATE        : 12-MAR-2025
#TIME        : 16:24
#OWNER       : Unknown
#NPOINTS     : 4096
#NCOLUMNS    : 1
#XUNITS      : eV
#YUNITS      : counts
#DATATYPE    : Y
#XPERCHAN    : 9.99778
#OFFSET      : 1.69135
#BEAMKV      : 20
#SIGNALTYPE  : EDS
#ELEVANGLE   : 35
#AZIMANGLE   : 0
#LIVETIME    : 239.842
#REALTIME    : 254.4407
#PROBECUR    : 1.02709
#TAUWIND     : 0
#TDEADLYR    : 0
#TACTLYR     : 0.045
#TALWIND     : 0.025
#CHOFFSET    : 0.0
#XLABEL      : Energy (eV)
#YLABEL      : Counts
#XPOSITION   : -1.60215
#YPOSITION   : 3.57365
#ZPOSITION   : 31.03608
#EDSDET      : SD
##SPECIMEN   : SPI MM1dup Kaersutite[4][all]
##DET_HASH   : 12273538-fd48-a23f-0a19-f1e6fa85caef
##CALIB_HASH : 6abaa72c-aa41-8738-0be9-f592914732f3
##WORKING    : 15.0 mm
##DET_NAME   : EDAX All
##DET_MODE   : MediumLE
#SPECTRUM    :
27,
170,
10662,
5721,
42658,
8514,
2587,
4897,
4263,
53840,
6612,
20109,
41737,
20913,
3142,
2734,
2999,
2756,
2746,
2805,
2707,
2600,
2469,
2998,
4986,
2624,
22224,
8470,
2717,
4961,
1830,
1857,
10183,
2669,
1656,
2736,
1709,
1446,
1320,
1419,
1303,
1230,
1484,
1186,
1069,
5018,
13351,
1156,
995,
1014,
2394,
1534,
776,
815,
855,
760,
749,
721,
652,
636,
691,
675,
627,
575,
579,
559,
528,
530,
479,
509,
427,
467,
401,
433,
443,
348,
377,
365,
360,
340,
319,
274,
289,
299,
287,
267,
247,
227,
228,
223,
229,
209,
191,
186,
175,
180,
158,
149,
140,
134,
129,
128,
119,
113,
100,
97,
81,
86,
90,
82,
54,
68,
70,
64,
52,
48,
56,
52,
41,
35,
43,
33,
31,
30,
23,
33,
27,
17,
21,
15,
13,
11,
8,
8,
8,
12,
10,
6,
5,
2,
1,
4,
0,
1,
0,
0,
0,
0,
0,
0,
0,
0,
0,
1,
0,
0,
0,
0,
0,
0,
0,
0,
0,
0,
0,
0,
0,
0,
0,
0,
0,
0,
0,
0,
0,
0,
0,
0,
0,
1,
0,
0,
0,
0,
0,
0,
0,
0,
0,
0,
0,
0,
0,
0,
0,
0,
1,
0,
0,
0,
0,
0,
0,
0,
0,
0,
0,
0,
0,
0,
0,
0,
0,
0,
0,
0,
0,
0,
0,
0,
0,
0,
0,
0,
0,
0,
0,
0,
0,
0,
0,
0,
0,
0,
0,
0,
0,
0,
0,
0,
0,
0,
0,
0,
0,
0,
0,
0,
0,
0,
0,
0,
0,
0,
0,
0,
0,
0,
0,
0,
0,
0,
0,
0,
0,
0,
0,
0,
0,
0,
0,
0,
0,
0,
0,
0,
0,
0,
0,
0,
0,
0,
0,
0,
0,
0,
0,
0,
0,
0,
0,
0,
0,
0,
#ENDOFDATA   :

File: SPI MM1 Kaersutite[5][4].msa
#FORMAT      : EMSA/MAS Spectral Data File
#VERSION     : 1.0
#TITLE       : SPI MM1dup Kaersutite[5][all]
#DATE        : 12-MAR-2025
#TIME        : 16:25
#OWNER       : Unknown
#NPOINTS     : 4096
#NCOLUMNS    : 1
#XUNITS      : eV
#YUNITS      : counts
#DATATYPE    : Y
#XPERCHAN    : 9.99778
#OFFSET      : 1.69135
#BEAMKV      : 20
#SIGNALTYPE  : EDS
#ELEVANGLE   : 35
#AZIMANGLE   : 0
#LIVETIME    : 239.642
#REALTIME    : 254.243
#PROBECUR    : 1.02709
#TAUWIND     : 0
#TDEADLYR    : 0
#TACTLYR     : 0.045
#TALWIND     : 0.025
#CHOFFSET    : 0.0
#XLABEL      : Energy (eV)
#YLABEL      : Counts
#XPOSITION   : -1.62336
#YPOSITION   : 3.60287
#ZPOSITION   : 31.03608
#EDSDET      : SD
##SPECIMEN   : SPI MM1dup Kaersutite[5][all]
##DET_HASH   : 12273538-fd48-a23f-0a19-f1e6fa85caef
##CALIB_HASH : 6abaa72c-aa41-8738-0be9-f592914732f3
##WORKING    : 15.0 mm
##DET_NAME   : EDAX All
##DET_MODE   : MediumLE
#SPECTRUM    :
25,
182,
9386,
5760,
43632,
8620,
2579,
4889,
4114,
53975,
6752,
20033,
41704,
20850,
3182,
2685,
2911,
2738,
2702,
2800,
2699,
2610,
2393,
3001,
4863,
2524,
22178,
8273,
2832,
4991,
1919,
1813,
10105,
2627,
1574,
2781,
1671,
1396,
1361,
1430,
1277,
1225,
1445,
1168,
1101,
4921,
13469,
1179,
1011,
1043,
2323,
1591,
884,
887,
851,
783,
723,
694,
661,
720,
602,
625,
602,
571,
532,
564,
519,
510,
435,
493,
462,
435,
471,
447,
440,
348,
373,
377,
314,
341,
345,
341,
293,
267,
269,
255,
231,
226,
248,
213,
194,
195,
215,
198,
183,
184,
166,
138,
125,
147,
139,
131,
121,
108,
115,
108,
92,
93,
76,
76,
72,
71,
80,
61,
68,
48,
56,
49,
34,
34,
38,
32,
34,
28,
37,
23,
28,
31,
14,
22,
13,
11,
5,
8,
10,
13,
6,
2,
6,
3,
2,
3,
0,
0,
1,
0,
2,
0,
0,
0,
0,
0,
0,
0,
0,
0,
0,
0,
0,
0,
0,
0,
0,
0,
0,
0,
0,
1,
0,
0,
1,
0,
0,
0,
0,
0,
0,
0,
0,
0,
0,
0,
0,
0,
0,
0,
0,
0,
0,
0,
0,
0,
0,
0,
0,
0,
0,
0,
0,
0,
0,
0,
0,
0,
0,
0,
0,
0,
0,
0,
0,
0,
0,
0,
0,
0,
0,
0,
0,
0,
0,
0,
0,
0,
0,
0,
0,
0,
0,
0,
0,
0,
0,
0,
0,
0,
0,
0,
0,
0,
0,
0,
0,
0,
0,
0,
0,
0,
0,
0,
0,
0,
0,
0,
0,
0,
0,
0,
0,
0,
0,
0,
0,
0,
0,
0,
0,
0,
0,
0,
0,
0,
0,
0,
0,
0,
0,
0,
0,
0,
0,
0,
0,
0,
0,
0,
0,
0,
0,
0,
0,
0,
0,
0,
#ENDOFDATA   :

File: SPI MM1 Kaersutite[6][4].msa
#FORMAT      : EMSA/MAS Spectral Data File
#VERSION     : 1.0
#TITLE       : SPI MM1dup Kaersutite[6][all]
#DATE        : 12-MAR-2025
#TIME        : 16:26
#OWNER       : Unknown
#NPOINTS     : 4096
#NCOLUMNS    : 1
#XUNITS      : eV
#YUNITS      : counts
#DATATYPE    : Y
#XPERCHAN    : 9.99778
#OFFSET      : 1.69135
#BEAMKV      : 20
#SIGNALTYPE  : EDS
#ELEVANGLE   : 35
#AZIMANGLE   : 0
#LIVETIME    : 239.744
#REALTIME    : 254.382
#PROBECUR    : 1.02709
#TAUWIND     : 0
#TDEADLYR    : 0
#TACTLYR     : 0.045
#TALWIND     : 0.025
#CHOFFSET    : 0.0
#XLABEL      : Energy (eV)
#YLABEL      : Counts
#XPOSITION   : -1.62292
#YPOSITION   : 3.58446
#ZPOSITION   : 31.03608
#EDSDET      : SD
##SPECIMEN   : SPI MM1dup Kaersutite[6][all]
##DET_HASH   : 12273538-fd48-a23f-0a19-f1e6fa85caef
##CALIB_HASH : 6abaa72c-aa41-8738-0be9-f592914732f3
##WORKING    : 15.0 mm
##DET_NAME   : EDAX All
##DET_MODE   : MediumLE
#SPECTRUM    :
29,
187,
9530,
5835,
43645,
8655,
2640,
4970,
4227,
53312,
6736,
20235,
41973,
21047,
3160,
2755,
3023,
2704,
2731,
2734,
2668,
2562,
2497,
3010,
4884,
2664,
21994,
8483,
2790,
4930,
1893,
1848,
10534,
2563,
1664,
2768,
1682,
1434,
1283,
1420,
1297,
1235,
1441,
1178,
1213,
4886,
13579,
1121,
990,
1056,
2336,
1600,
846,
876,
794,
742,
767,
689,
691,
681,
631,
591,
576,
603,
536,
534,
550,
492,
502,
444,
458,
430,
395,
421,
373,
358,
382,
349,
364,
354,
310,
291,
297,
282,
264,
250,
257,
213,
237,
210,
235,
214,
195,
166,
162,
168,
186,
143,
157,
139,
128,
130,
107,
118,
106,
107,
91,
90,
86,
77,
67,
69,
58,
71,
62,
57,
43,
41,
37,
42,
33,
29,
34,
41,
22,
27,
24,
19,
20,
17,
13,
12,
14,
6,
5,
11,
3,
10,
5,
2,
3,
1,
3,
0,
0,
1,
0,
0,
0,
0,
1,
1,
0,
0,
1,
0,
0,
0,
0,
0,
0,
0,
0,
0,
0,
0,
0,
0,
0,
0,
0,
0,
0,
0,
0,
0,
0,
0,
0,
0,
0,
0,
0,
0,
0,
0,
0,
0,
0,
0,
0,
0,
0,
0,
0,
0,
0,
0,
0,
0,
0,
0,
0,
0,
0,
0,
0,
0,
0,
0,
0,
0,
0,
0,
0,
0,
0,
0,
0,
0,
0,
0,
0,
0,
0,
0,
0,
0,
0,
0,
0,
0,
0,
0,
0,
0,
0,
0,
0,
0,
0,
0,
0,
0,
0,
0,
0,
0,
0,
0,
0,
0,
0,
0,
0,
0,
0,
0,
0,
0,
0,
0,
0,
0,
0,
0,
0,
0,
0,
0,
0,
0,
0,
0,
0,
0,
0,
0,
0,
0,
0,
0,
0,
0,
0,
0,
0,
0,
0,
0,
0,
0,
0,
0,
#ENDOFDATA   :

File: SPI MM1 Kyanite[5][4].msa
#FORMAT      : EMSA/MAS Spectral Data File
#VERSION     : 1.0
#TITLE       : SPI MM1dup Kyanite[5][all]
#DATE        : 12-MAR-2025
#TIME        : 16:16
#OWNER       : Unknown
#NPOINTS     : 4096
#NCOLUMNS    : 1
#XUNITS      : eV
#YUNITS      : counts
#DATATYPE    : Y
#XPERCHAN    : 9.99778
#OFFSET      : 1.69135
#BEAMKV      : 20
#SIGNALTYPE  : EDS
#ELEVANGLE   : 35
#AZIMANGLE   : 0
#LIVETIME    : 239.737
#REALTIME    : 256.486
#PROBECUR    : 1.02709
#TAUWIND     : 0
#TDEADLYR    : 0
#TACTLYR     : 0.045
#TALWIND     : 0.025
#CHOFFSET    : 0.0
#XLABEL      : Energy (eV)
#YLABEL      : Counts
#XPOSITION   : -4.16113
#YPOSITION   : 4.17778
#ZPOSITION   : 31.03608
#EDSDET      : SD
##SPECIMEN   : SPI MM1dup Kyanite[5][all]
##DET_HASH   : 12273538-fd48-a23f-0a19-f1e6fa85caef
##CALIB_HASH : 6abaa72c-aa41-8738-0be9-f592914732f3
##WORKING    : 15.0 mm
##DET_NAME   : EDAX All
##DET_MODE   : MediumLE
#SPECTRUM    :
24,
187,
7560,
6464,
68375,
2139,
2597,
3328,
3921,
5102,
23228,
104422,
32843,
15889,
2641,
2100,
2417,
2166,
2122,
2132,
2094,
2481,
2127,
2315,
1857,
1832,
1766,
1717,
1656,
1601,
1552,
1437,
1412,
1426,
1356,
1291,
1262,
1129,
1097,
1120,
1089,
1052,
947,
928,
899,
991,
1129,
834,
830,
799,
811,
749,
726,
719,
673,
601,
654,
629,
579,
554,
584,
543,
487,
424,
431,
438,
419,
428,
395,
381,
383,
325,
359,
347,
363,
310,
292,
292,
279,
267,
241,
234,
255,
232,
227,
193,
202,
219,
189,
180,
170,
174,
154,
129,
131,
139,
138,
116,
133,
83,
93,
104,
73,
67,
82,
70,
72,
77,
62,
62,
66,
53,
48,
52,
42,
33,
28,
31,
26,
21,
28,
33,
20,
24,
25,
22,
18,
24,
12,
13,
15,
14,
11,
6,
4,
2,
3,
5,
3,
4,
2,
0,
3,
0,
0,
1,
0,
0,
0,
0,
0,
0,
0,
0,
0,
0,
0,
0,
0,
0,
0,
0,
0,
0,
0,
0,
0,
0,
0,
1,
0,
0,
0,
0,
0,
0,
0,
0,
0,
0,
0,
0,
0,
0,
0,
0,
0,
0,
0,
0,
0,
0,
0,
0,
0,
0,
0,
0,
0,
0,
0,
1,
0,
0,
0,
0,
0,
0,
0,
0,
0,
0,
0,
0,
0,
0,
0,
0,
0,
0,
0,
0,
0,
0,
0,
0,
0,
0,
0,
0,
0,
0,
0,
0,
0,
0,
0,
0,
0,
0,
0,
0,
0,
0,
0,
0,
0,
0,
0,
0,
0,
0,
0,
0,
0,
0,
0,
0,
0,
0,
0,
0,
0,
0,
0,
0,
0,
0,
0,
0,
0,
0,
0,
0,
0,
0,
0,
0,
0,
0,
0,
0,
0,
0,
0,
0,
0,
0,
0,
0,
0,
0,
0,
0,
#ENDOFDATA   :

File: SPI MM1 Kyanite[7][4].msa
#FORMAT      : EMSA/MAS Spectral Data File
#VERSION     : 1.0
#TITLE       : SPI MM1dup Kyanite[7][all]
#DATE        : 12-MAR-2025
#TIME        : 16:18
#OWNER       : Unknown
#NPOINTS     : 4096
#NCOLUMNS    : 1
#XUNITS      : eV
#YUNITS      : counts
#DATATYPE    : Y
#XPERCHAN    : 9.99778
#OFFSET      : 1.69135
#BEAMKV      : 20
#SIGNALTYPE  : EDS
#ELEVANGLE   : 35
#AZIMANGLE   : 0
#LIVETIME    : 239.832
#REALTIME    : 256.613
#PROBECUR    : 1.02709
#TAUWIND     : 0
#TDEADLYR    : 0
#TACTLYR     : 0.045
#TALWIND     : 0.025
#CHOFFSET    : 0.0
#XLABEL      : Energy (eV)
#YLABEL      : Counts
#XPOSITION   : -4.14302
#YPOSITION   : 4.18045
#ZPOSITION   : 31.03608
#EDSDET      : SD
##SPECIMEN   : SPI MM1dup Kyanite[7][all]
##DET_HASH   : 12273538-fd48-a23f-0a19-f1e6fa85caef
##CALIB_HASH : 6abaa72c-aa41-8738-0be9-f592914732f3
##WORKING    : 15.0 mm
##DET_NAME   : EDAX All
##DET_MODE   : MediumLE
#SPECTRUM    :
34,
167,
7572,
6437,
68135,
2045,
2568,
3336,
3907,
5030,
22973,
105023,
32778,
15889,
2575,
2072,
2401,
2062,
2108,
2153,
2098,
2582,
2071,
2373,
1939,
1897,
1681,
1622,
1609,
1486,
1538,
1410,
1445,
1373,
1310,
1295,
1219,
1210,
1141,
1167,
1106,
1061,
988,
967,
904,
1019,
1114,
887,
827,
811,
808,
800,
678,
716,
646,
651,
612,
608,
577,
565,
552,
533,
499,
507,
489,
438,
405,
410,
414,
364,
364,
361,
324,
342,
364,
306,
322,
313,
278,
263,
273,
264,
231,
237,
189,
185,
205,
184,
188,
164,
163,
168,
145,
140,
146,
143,
136,
117,
115,
104,
113,
75,
101,
88,
75,
67,
72,
80,
59,
61,
55,
51,
53,
44,
49,
47,
33,
34,
25,
35,
30,
23,
20,
22,
20,
13,
28,
16,
14,
15,
12,
12,
9,
7,
8,
7,
6,
7,
2,
3,
2,
2,
0,
0,
0,
0,
0,
0,
0,
0,
0,
0,
0,
0,
0,
0,
0,
0,
0,
0,
0,
0,
0,
0,
0,
0,
0,
0,
0,
0,
0,
0,
0,
0,
0,
0,
0,
0,
0,
0,
0,
0,
0,
0,
0,
0,
0,
0,
0,
0,
0,
0,
0,
0,
0,
0,
0,
0,
1,
0,
0,
0,
0,
0,
0,
0,
0,
0,
0,
0,
0,
0,
0,
0,
0,
0,
0,
0,
0,
0,
0,
0,
0,
0,
0,
0,
0,
0,
0,
0,
0,
0,
0,
0,
0,
0,
0,
0,
0,
0,
0,
0,
0,
0,
0,
0,
0,
0,
0,
0,
0,
0,
0,
0,
0,
0,
0,
0,
0,
0,
0,
0,
0,
0,
0,
0,
0,
0,
0,
0,
0,
0,
0,
0,
0,
0,
0,
0,
0,
0,
0,
0,
0,
0,
0,
0,
0,
0,
0,
0,
0,
0,
0,
0,
#ENDOFDATA   :