Folder: spex_quant/N132962/Quantification/20 keV/MMM2 (part 2)

File: SPI MM2 MgAl2O4[1][4].msa
#FORMAT      : EMSA/MAS Spectral Data File
#VERSION     : 1.0
#TITLE       : SPI MM2 MgAl2O4[1][all]
#DATE        : 13-MAR-2025
#TIME        : 09:28
#OWNER       : Unknown
#NPOINTS     : 4096
#NCOLUMNS    : 1
#XUNITS      : eV
#YUNITS      : counts
#DATATYPE    : Y
#XPERCHAN    : 9.99778
#OFFSET      : 1.69135
#BEAMKV      : 20
#SIGNALTYPE  : EDS
#ELEVANGLE   : 35
#AZIMANGLE   : 0
#LIVETIME    : 239.811
#REALTIME    : 256.358
#PROBECUR    : 1.02582
#TAUWIND     : 0
#TDEADLYR    : 0
#TACTLYR     : 0.045
#TALWIND     : 0.025
#CHOFFSET    : 0.0
#XLABEL      : Energy (eV)
#YLABEL      : Counts
#XPOSITION   : 0.75806
#YPOSITION   : -5.35274
#ZPOSITION   : 31.03509
#EDSDET      : SD
##SPECIMEN   : SPI MM2 MgAl2O4[1][all]
##D2STDCMP   : MgAl2O4,(O:44.9839),(Mg:17.0844),(Al:37.9316)
##DET_HASH   : 12273538-fd48-a23f-0a19-f1e6fa85caef
##CALIB_HASH : 6abaa72c-aa41-8738-0be9-f592914732f3
##WORKING    : 15.0 mm
##DET_NAME   : EDAX All
##DET_MODE   : MediumLE
#SPECTRUM    :
40,
197,
8139,
6570,
70178,
2121,
2809,
3669,
5344,
151839,
19692,
91637,
2083,
2435,
2482,
2184,
2109,
2158,
2348,
2281,
2305,
2387,
2017,
1917,
1810,
1791,
1721,
1642,
1622,
1570,
1460,
1516,
1402,
1365,
1321,
1219,
1255,
1167,
1160,
1103,
1045,
1006,
961,
981,
885,
924,
1029,
845,
767,
743,
751,
712,
657,
722,
621,
634,
589,
569,
570,
560,
561,
556,
506,
456,
509,
442,
410,
420,
393,
380,
397,
359,
360,
341,
323,
307,
295,
257,
266,
268,
276,
267,
227,
223,
232,
180,
205,
201,
180,
165,
179,
155,
157,
143,
122,
134,
110,
98,
138,
109,
85,
97,
71,
86,
68,
81,
66,
75,
65,
60,
61,
62,
52,
33,
41,
49,
31,
34,
40,
39,
27,
19,
22,
16,
22,
20,
19,
15,
13,
14,
6,
6,
6,
10,
8,
6,
2,
4,
4,
3,
0,
3,
0,
1,
0,
1,
0,
0,
0,
0,
0,
0,
1,
0,
0,
0,
0,
0,
0,
0,
0,
0,
0,
0,
0,
0,
0,
0,
0,
0,
0,
0,
0,
0,
0,
0,
0,
0,
0,
0,
0,
0,
0,
0,
0,
0,
0,
0,
0,
0,
0,
0,
0,
0,
0,
0,
0,
0,
0,
0,
0,
0,
0,
0,
0,
0,
0,
0,
0,
0,
0,
0,
0,
0,
0,
0,
0,
0,
0,
0,
0,
0,
0,
0,
0,
0,
0,
0,
0,
0,
0,
0,
0,
0,
0,
0,
0,
0,
0,
0,
0,
0,
0,
0,
0,
0,
0,
0,
0,
0,
0,
0,
0,
0,
0,
0,
0,
0,
0,
0,
0,
0,
0,
0,
0,
0,
0,
0,
0,
0,
0,
0,
0,
0,
0,
0,
0,
0,
0,
0,
0,
0,
0,
0,
0,
0,
0,
0,
0,
0,
0,
0,
0,
0,
#ENDOFDATA   :

File: SPI MM2 MgAl2O4[3][4].msa
#FORMAT      : EMSA/MAS Spectral Data File
#VERSION     : 1.0
#TITLE       : SPI MM2 MgAl2O4[3][all]
#DATE        : 13-MAR-2025
#TIME        : 09:30
#OWNER       : Unknown
#NPOINTS     : 4096
#NCOLUMNS    : 1
#XUNITS      : eV
#YUNITS      : counts
#DATATYPE    : Y
#XPERCHAN    : 9.99778
#OFFSET      : 1.69135
#BEAMKV      : 20
#SIGNALTYPE  : EDS
#ELEVANGLE   : 35
#AZIMANGLE   : 0
#LIVETIME    : 239.8274
#REALTIME    : 256.364
#PROBECUR    : 1.02582
#TAUWIND     : 0
#TDEADLYR    : 0
#TACTLYR     : 0.045
#TALWIND     : 0.025
#CHOFFSET    : 0.0
#XLABEL      : Energy (eV)
#YLABEL      : Counts
#XPOSITION   : 0.87938
#YPOSITION   : -5.3522
#ZPOSITION   : 31.03509
#EDSDET      : SD
##SPECIMEN   : SPI MM2 MgAl2O4[3][all]
##D2STDCMP   : MgAl2O4,(O:44.9839),(Mg:17.0844),(Al:37.9316)
##DET_HASH   : 12273538-fd48-a23f-0a19-f1e6fa85caef
##CALIB_HASH : 6abaa72c-aa41-8738-0be9-f592914732f3
##WORKING    : 15.0 mm
##DET_NAME   : EDAX All
##DET_MODE   : MediumLE
#SPECTRUM    :
20,
192,
8481,
6568,
69108,
1983,
2891,
3745,
5246,
152774,
19969,
91546,
2101,
2408,
2491,
2110,
2146,
2168,
2285,
2255,
2295,
2396,
2114,
1921,
1902,
1798,
1846,
1676,
1617,
1569,
1530,
1473,
1424,
1391,
1294,
1235,
1326,
1286,
1132,
1107,
1062,
1013,
1001,
956,
940,
875,
995,
832,
816,
801,
752,
721,
673,
666,
631,
639,
612,
624,
623,
548,
522,
505,
483,
485,
433,
438,
410,
384,
364,
386,
370,
380,
347,
360,
285,
322,
307,
260,
284,
258,
241,
227,
230,
212,
240,
192,
200,
181,
183,
163,
157,
139,
155,
142,
121,
122,
139,
141,
121,
83,
96,
91,
100,
85,
80,
72,
74,
62,
70,
68,
65,
39,
54,
44,
54,
28,
38,
35,
25,
28,
25,
35,
25,
22,
34,
10,
19,
14,
16,
8,
11,
10,
9,
11,
8,
5,
3,
6,
1,
2,
4,
1,
0,
0,
0,
0,
0,
1,
0,
0,
0,
0,
0,
0,
0,
0,
0,
0,
0,
0,
0,
0,
0,
0,
0,
0,
0,
0,
0,
0,
0,
0,
0,
0,
0,
0,
0,
0,
0,
0,
0,
0,
0,
0,
0,
0,
0,
0,
0,
0,
0,
0,
0,
0,
0,
0,
0,
0,
0,
0,
0,
0,
0,
0,
0,
0,
0,
0,
0,
0,
0,
0,
0,
0,
0,
0,
0,
0,
0,
0,
0,
0,
0,
0,
0,
0,
0,
0,
0,
0,
0,
0,
0,
0,
0,
0,
0,
0,
0,
0,
0,
0,
0,
0,
0,
0,
0,
0,
0,
0,
0,
0,
0,
0,
0,
0,
0,
0,
0,
0,
0,
0,
0,
0,
0,
0,
0,
0,
0,
0,
0,
0,
0,
0,
0,
0,
0,
0,
0,
0,
0,
0,
0,
0,
0,
0,
0,
0,
0,
0,
0,
0,
0,
0,
#ENDOFDATA   :

File: SPI MM2 MgAl2O4[5][4].msa
#FORMAT      : EMSA/MAS Spectral Data File
#VERSION     : 1.0
#TITLE       : SPI MM2 MgAl2O4[5][all]
#DATE        : 13-MAR-2025
#TIME        : 09:32
#OWNER       : Unknown
#NPOINTS     : 4096
#NCOLUMNS    : 1
#XUNITS      : eV
#YUNITS      : counts
#DATATYPE    : Y
#XPERCHAN    : 9.99778
#OFFSET      : 1.69135
#BEAMKV      : 20
#SIGNALTYPE  : EDS
#ELEVANGLE   : 35
#AZIMANGLE   : 0
#LIVETIME    : 239.826
#REALTIME    : 256.369
#PROBECUR    : 1.02582
#TAUWIND     : 0
#TDEADLYR    : 0
#TACTLYR     : 0.045
#TALWIND     : 0.025
#CHOFFSET    : 0.0
#XLABEL      : Energy (eV)
#YLABEL      : Counts
#XPOSITION   : 0.82443
#YPOSITION   : -5.3788
#ZPOSITION   : 31.03509
#EDSDET      : SD
##SPECIMEN   : SPI MM2 MgAl2O4[5][all]
##D2STDCMP   : MgAl2O4,(O:44.9839),(Mg:17.0844),(Al:37.9316)
##DET_HASH   : 12273538-fd48-a23f-0a19-f1e6fa85caef
##CALIB_HASH : 6abaa72c-aa41-8738-0be9-f592914732f3
##WORKING    : 15.0 mm
##DET_NAME   : EDAX All
##DET_MODE   : MediumLE
#SPECTRUM    :
26,
190,
8269,
6498,
69469,
2053,
2800,
3603,
5414,
152633,
19816,
91846,
2098,
2393,
2529,
2089,
2090,
2152,
2343,
2231,
2417,
2414,
2142,
1948,
1857,
1862,
1726,
1660,
1662,
1566,
1573,
1469,
1412,
1364,
1377,
1260,
1243,
1162,
1101,
1094,
1062,
1041,
1002,
944,
881,
914,
937,
812,
836,
810,
779,
717,
697,
709,
658,
612,
591,
562,
565,
550,
543,
504,
499,
505,
441,
448,
421,
412,
386,
377,
344,
382,
335,
322,
318,
308,
324,
268,
317,
279,
234,
219,
237,
223,
225,
232,
197,
204,
186,
166,
178,
142,
141,
149,
126,
127,
140,
113,
128,
106,
108,
88,
74,
81,
85,
82,
71,
64,
73,
54,
49,
55,
50,
55,
46,
40,
40,
45,
45,
30,
19,
30,
23,
29,
24,
9,
20,
17,
17,
16,
9,
5,
4,
12,
6,
2,
7,
3,
3,
3,
3,
1,
1,
0,
0,
0,
0,
0,
0,
0,
0,
0,
0,
0,
0,
0,
0,
0,
1,
0,
0,
0,
0,
0,
0,
0,
0,
0,
0,
0,
0,
0,
0,
0,
0,
0,
0,
0,
0,
0,
0,
0,
0,
0,
0,
0,
0,
0,
0,
0,
0,
0,
0,
0,
0,
0,
0,
0,
0,
0,
0,
0,
0,
0,
0,
0,
0,
0,
0,
0,
0,
0,
0,
0,
0,
0,
0,
0,
0,
0,
0,
0,
0,
0,
0,
0,
0,
0,
0,
0,
0,
0,
0,
0,
0,
0,
0,
0,
0,
0,
0,
0,
0,
0,
0,
0,
0,
0,
0,
0,
0,
0,
0,
0,
0,
0,
0,
0,
0,
0,
0,
0,
0,
0,
0,
0,
0,
0,
0,
0,
0,
0,
0,
0,
0,
0,
0,
0,
0,
0,
0,
0,
0,
0,
0,
0,
0,
0,
0,
0,
0,
0,
0,
0,
#ENDOFDATA   :

File: SPI MM2 MgAl2O4[7][4].msa
#FORMAT      : EMSA/MAS Spectral Data File
#VERSION     : 1.0
#TITLE       : SPI MM2 MgAl2O4[7][all]
#DATE        : 13-MAR-2025
#TIME        : 09:35
#OWNER       : Unknown
#NPOINTS     : 4096
#NCOLUMNS    : 1
#XUNITS      : eV
#YUNITS      : counts
#DATATYPE    : Y
#XPERCHAN    : 9.99778
#OFFSET      : 1.69135
#BEAMKV      : 20
#SIGNALTYPE  : EDS
#ELEVANGLE   : 35
#AZIMANGLE   : 0
#LIVETIME    : 239.798
#REALTIME    : 256.361
#PROBECUR    : 1.02582
#TAUWIND     : 0
#TDEADLYR    : 0
#TACTLYR     : 0.045
#TALWIND     : 0.025
#CHOFFSET    : 0.0
#XLABEL      : Energy (eV)
#YLABEL      : Counts
#XPOSITION   : 0.79171
#YPOSITION   : -5.34418
#ZPOSITION   : 31.03509
#EDSDET      : SD
##SPECIMEN   : SPI MM2 MgAl2O4[7][all]
##D2STDCMP   : MgAl2O4,(O:44.9839),(Mg:17.0844),(Al:37.9316)
##DET_HASH   : 12273538-fd48-a23f-0a19-f1e6fa85caef
##CALIB_HASH : 6abaa72c-aa41-8738-0be9-f592914732f3
##WORKING    : 15.0 mm
##DET_NAME   : EDAX All
##DET_MODE   : MediumLE
#SPECTRUM    :
24,
193,
8240,
6677,
69767,
2070,
2804,
3660,
5297,
152628,
19614,
91567,
2092,
2391,
2498,
2148,
2197,
2269,
2253,
2155,
2330,
2454,
2125,
1915,
1889,
1784,
1749,
1667,
1663,
1562,
1508,
1457,
1375,
1372,
1325,
1293,
1273,
1238,
1140,
1156,
1095,
999,
1048,
961,
945,
954,
934,
856,
781,
791,
752,
726,
658,
696,
697,
650,
628,
602,
581,
571,
553,
576,
506,
454,
483,
428,
419,
412,
386,
384,
363,
355,
369,
357,
328,
318,
294,
297,
268,
249,
255,
248,
223,
201,
216,
228,
187,
192,
172,
178,
201,
156,
151,
139,
118,
131,
130,
123,
111,
111,
88,
107,
88,
66,
84,
80,
65,
76,
62,
54,
53,
56,
51,
52,
45,
40,
20,
29,
41,
23,
35,
26,
21,
22,
22,
26,
20,
11,
17,
11,
11,
12,
11,
9,
6,
4,
7,
6,
5,
5,
3,
2,
1,
1,
0,
0,
1,
0,
0,
0,
0,
0,
0,
0,
1,
0,
0,
0,
0,
0,
0,
0,
0,
0,
0,
0,
0,
0,
0,
0,
0,
0,
0,
0,
0,
0,
0,
0,
0,
0,
0,
0,
0,
0,
0,
1,
0,
0,
0,
0,
0,
0,
0,
0,
1,
0,
0,
0,
0,
0,
0,
0,
0,
0,
0,
0,
0,
0,
0,
0,
0,
0,
0,
0,
0,
0,
0,
0,
0,
0,
0,
0,
0,
0,
0,
0,
0,
0,
0,
0,
0,
0,
0,
0,
0,
0,
0,
0,
0,
0,
0,
0,
0,
0,
0,
0,
0,
0,
0,
0,
0,
0,
0,
0,
0,
0,
0,
0,
0,
0,
0,
0,
0,
0,
0,
0,
0,
0,
0,
0,
0,
0,
0,
0,
0,
0,
0,
0,
0,
0,
0,
0,
0,
0,
0,
0,
0,
0,
0,
0,
0,
0,
0,
0,
#ENDOFDATA   :

File: SPI MM2 Pyrite[0][4].msa
#FORMAT      : EMSA/MAS Spectral Data File
#VERSION     : 1.0
#TITLE       : SPI MM2 Pyrite[0][all]
#DATE        : 13-MAR-2025
#TIME        : 12:49
#OWNER       : Unknown
#NPOINTS     : 4096
#NCOLUMNS    : 1
#XUNITS      : eV
#YUNITS      : counts
#DATATYPE    : Y
#XPERCHAN    : 9.99778
#OFFSET      : 1.69135
#BEAMKV      : 20
#SIGNALTYPE  : EDS
#ELEVANGLE   : 35
#AZIMANGLE   : 0
#LIVETIME    : 239.846
#REALTIME    : 262.003
#PROBECUR    : 1.02627
#TAUWIND     : 0
#TDEADLYR    : 0
#TACTLYR     : 0.045
#TALWIND     : 0.025
#CHOFFSET    : 0.0
#XLABEL      : Energy (eV)
#YLABEL      : Counts
#XPOSITION   : 7.85443
#YPOSITION   : 1.92288
#ZPOSITION   : 31.03511
#EDSDET      : SD
##SPECIMEN   : SPI MM2 Pyrite[0][all]
##DET_HASH   : 12273538-fd48-a23f-0a19-f1e6fa85caef
##CALIB_HASH : 6abaa72c-aa41-8738-0be9-f592914732f3
##WORKING    : 15.0 mm
##DET_NAME   : EDAX All
##DET_MODE   : MediumLE
#SPECTRUM    :
23,
766,
10894,
2658,
16662,
62713,
3467,
3641,
4309,
4907,
5492,
5825,
6188,
6340,
6132,
6411,
106196,
82776,
14229,
3138,
3188,
3256,
3232,
3046,
2986,
3033,
3083,
3038,
2799,
2798,
2791,
2703,
2733,
3701,
2557,
2533,
2349,
2204,
2288,
2193,
2098,
2043,
2011,
2004,
2152,
22778,
68769,
2525,
1753,
1996,
9247,
5345,
1291,
1330,
1282,
1190,
1200,
1187,
1127,
1122,
1035,
1099,
1197,
1099,
1003,
891,
935,
936,
904,
816,
813,
749,
798,
704,
723,
675,
640,
616,
629,
605,
591,
561,
526,
522,
480,
496,
445,
442,
436,
434,
440,
404,
381,
331,
298,
307,
288,
279,
272,
253,
235,
225,
195,
200,
202,
195,
185,
168,
177,
157,
133,
143,
128,
116,
117,
101,
102,
97,
66,
106,
71,
81,
59,
60,
68,
44,
53,
49,
35,
32,
34,
24,
27,
28,
15,
17,
16,
15,
11,
7,
8,
2,
3,
1,
1,
0,
1,
1,
0,
1,
1,
1,
2,
0,
0,
0,
0,
0,
2,
0,
0,
0,
0,
0,
0,
0,
0,
0,
0,
0,
0,
0,
0,
0,
0,
0,
0,
0,
1,
0,
0,
0,
0,
0,
0,
0,
0,
1,
0,
0,
0,
0,
0,
0,
0,
0,
0,
0,
0,
0,
0,
0,
0,
0,
0,
0,
0,
0,
0,
0,
0,
0,
0,
0,
0,
0,
0,
0,
0,
0,
0,
0,
0,
0,
0,
0,
0,
0,
0,
0,
0,
0,
0,
0,
0,
0,
0,
0,
0,
0,
0,
0,
0,
0,
0,
0,
0,
0,
0,
0,
0,
0,
0,
0,
0,
0,
0,
0,
0,
0,
0,
0,
0,
0,
0,
0,
0,
0,
0,
0,
0,
0,
0,
0,
0,
0,
0,
0,
0,
0,
0,
0,
0,
0,
0,
0,
0,
0,
0,
0,
0,
0,
0,
0,
#ENDOFDATA   :

File: SPI MM2 Pyrite[2][4].msa
#FORMAT      : EMSA/MAS Spectral Data File
#VERSION     : 1.0
#TITLE       : SPI MM2 Pyrite[2][all]
#DATE        : 13-MAR-2025
#TIME        : 12:51
#OWNER       : Unknown
#NPOINTS     : 4096
#NCOLUMNS    : 1
#XUNITS      : eV
#YUNITS      : counts
#DATATYPE    : Y
#XPERCHAN    : 9.99778
#OFFSET      : 1.69135
#BEAMKV      : 20
#SIGNALTYPE  : EDS
#ELEVANGLE   : 35
#AZIMANGLE   : 0
#LIVETIME    : 239.845
#REALTIME    : 262.06
#PROBECUR    : 1.02627
#TAUWIND     : 0
#TDEADLYR    : 0
#TACTLYR     : 0.045
#TALWIND     : 0.025
#CHOFFSET    : 0.0
#XLABEL      : Energy (eV)
#YLABEL      : Counts
#XPOSITION   : 7.83242
#YPOSITION   : 1.95805
#ZPOSITION   : 31.03511
#EDSDET      : SD
##SPECIMEN   : SPI MM2 Pyrite[2][all]
##DET_HASH   : 12273538-fd48-a23f-0a19-f1e6fa85caef
##CALIB_HASH : 6abaa72c-aa41-8738-0be9-f592914732f3
##WORKING    : 15.0 mm
##DET_NAME   : EDAX All
##DET_MODE   : MediumLE
#SPECTRUM    :
33,
737,
10809,
2739,
16683,
62866,
3676,
3612,
4310,
5071,
5554,
5924,
6156,
6565,
6047,
6398,
107459,
82917,
14197,
3189,
3117,
3423,
3341,
3059,
2975,
3085,
3061,
2853,
2908,
2755,
2864,
2589,
2782,
3726,
2668,
2524,
2306,
2237,
2256,
2222,
2046,
2033,
2006,
2063,
2139,
23073,
68558,
2507,
1735,
1923,
9340,
5584,
1347,
1348,
1297,
1216,
1222,
1178,
1134,
1099,
1019,
1092,
1239,
1085,
955,
906,
984,
948,
911,
794,
807,
734,
768,
741,
704,
656,
665,
605,
602,
632,
596,
543,
522,
557,
478,
450,
499,
459,
390,
422,
371,
398,
396,
339,
321,
321,
313,
312,
269,
255,
282,
221,
228,
240,
213,
200,
192,
177,
156,
165,
134,
121,
138,
120,
104,
88,
81,
102,
86,
81,
85,
98,
70,
52,
53,
55,
57,
44,
49,
23,
35,
28,
17,
24,
16,
9,
11,
9,
13,
8,
6,
6,
5,
0,
0,
1,
2,
0,
1,
0,
0,
1,
1,
0,
0,
0,
1,
0,
0,
0,
0,
0,
1,
0,
1,
0,
0,
0,
0,
0,
0,
0,
0,
0,
0,
0,
0,
0,
0,
0,
0,
0,
1,
1,
0,
0,
0,
0,
0,
0,
0,
0,
0,
1,
0,
0,
0,
0,
0,
0,
0,
0,
0,
0,
0,
0,
0,
0,
0,
0,
0,
0,
0,
0,
0,
0,
0,
0,
0,
0,
0,
0,
0,
0,
0,
0,
0,
0,
0,
0,
0,
0,
0,
0,
0,
0,
0,
0,
0,
0,
0,
0,
0,
0,
0,
0,
0,
0,
0,
0,
0,
0,
0,
0,
0,
0,
0,
0,
0,
0,
0,
0,
0,
0,
0,
0,
0,
0,
0,
0,
0,
0,
0,
0,
0,
0,
0,
0,
0,
0,
0,
0,
0,
0,
0,
0,
0,
0,
0,
0,
0,
0,
0,
0,
#ENDOFDATA   :

File: SPI MM2 Pyrite[4][4].msa
#FORMAT      : EMSA/MAS Spectral Data File
#VERSION     : 1.0
#TITLE       : SPI MM2 Pyrite[4][all]
#DATE        : 13-MAR-2025
#TIME        : 12:53
#OWNER       : Unknown
#NPOINTS     : 4096
#NCOLUMNS    : 1
#XUNITS      : eV
#YUNITS      : counts
#DATATYPE    : Y
#XPERCHAN    : 9.99778
#OFFSET      : 1.69135
#BEAMKV      : 20
#SIGNALTYPE  : EDS
#ELEVANGLE   : 35
#AZIMANGLE   : 0
#LIVETIME    : 239.855
#REALTIME    : 262.0544
#PROBECUR    : 1.02627
#TAUWIND     : 0
#TDEADLYR    : 0
#TACTLYR     : 0.045
#TALWIND     : 0.025
#CHOFFSET    : 0.0
#XLABEL      : Energy (eV)
#YLABEL      : Counts
#XPOSITION   : 7.85067
#YPOSITION   : 1.87824
#ZPOSITION   : 31.03511
#EDSDET      : SD
##SPECIMEN   : SPI MM2 Pyrite[4][all]
##DET_HASH   : 12273538-fd48-a23f-0a19-f1e6fa85caef
##CALIB_HASH : 6abaa72c-aa41-8738-0be9-f592914732f3
##WORKING    : 15.0 mm
##DET_NAME   : EDAX All
##DET_MODE   : MediumLE
#SPECTRUM    :
17,
763,
11085,
2720,
17094,
62756,
3635,
3556,
4300,
5063,
5427,
5894,
6320,
6552,
6044,
6386,
107429,
83088,
14079,
3205,
3139,
3324,
3195,
3162,
3022,
3070,
2984,
2893,
2908,
2771,
2787,
2660,
2694,
3547,
2620,
2467,
2437,
2262,
2241,
2227,
2086,
2023,
2003,
1993,
2109,
22695,
68872,
2480,
1727,
1957,
9367,
5466,
1354,
1462,
1224,
1241,
1271,
1185,
1093,
1084,
1077,
1075,
1278,
1102,
969,
999,
929,
933,
865,
803,
775,
751,
769,
706,
681,
661,
664,
644,
600,
596,
598,
518,
558,
526,
479,
480,
453,
436,
429,
410,
379,
421,
398,
343,
328,
320,
292,
290,
258,
286,
236,
207,
241,
222,
172,
180,
149,
181,
157,
172,
154,
150,
145,
135,
134,
113,
102,
101,
76,
76,
53,
71,
63,
65,
56,
42,
44,
46,
34,
38,
39,
31,
29,
30,
25,
22,
15,
10,
5,
8,
5,
5,
4,
0,
2,
1,
2,
0,
2,
0,
0,
0,
1,
1,
1,
1,
0,
0,
0,
1,
0,
0,
0,
0,
1,
1,
0,
0,
0,
0,
0,
1,
0,
0,
1,
0,
1,
0,
0,
0,
0,
1,
0,
0,
0,
0,
0,
0,
0,
0,
0,
0,
0,
0,
0,
0,
1,
0,
0,
0,
0,
0,
0,
0,
1,
0,
0,
0,
0,
0,
0,
0,
0,
0,
0,
0,
0,
0,
0,
0,
0,
0,
0,
0,
0,
0,
0,
0,
0,
0,
0,
0,
0,
0,
0,
0,
0,
0,
0,
0,
0,
0,
0,
0,
0,
0,
0,
0,
0,
0,
0,
0,
0,
0,
0,
0,
0,
0,
0,
0,
0,
0,
0,
0,
0,
0,
0,
0,
0,
0,
0,
0,
0,
0,
0,
0,
0,
0,
0,
0,
0,
0,
0,
0,
0,
0,
0,
0,
0,
0,
0,
0,
0,
0,
#ENDOFDATA   :

File: SPI MM2 Pyrite[5][4].msa
#FORMAT      : EMSA/MAS Spectral Data File
#VERSION     : 1.0
#TITLE       : SPI MM2 Pyrite[5][all]
#DATE        : 13-MAR-2025
#TIME        : 12:54
#OWNER       : Unknown
#NPOINTS     : 4096
#NCOLUMNS    : 1
#XUNITS      : eV
#YUNITS      : counts
#DATATYPE    : Y
#XPERCHAN    : 9.99778
#OFFSET      : 1.69135
#BEAMKV      : 20
#SIGNALTYPE  : EDS
#ELEVANGLE   : 35
#AZIMANGLE   : 0
#LIVETIME    : 239.849
#REALTIME    : 262.058
#PROBECUR    : 1.02627
#TAUWIND     : 0
#TDEADLYR    : 0
#TACTLYR     : 0.045
#TALWIND     : 0.025
#CHOFFSET    : 0.0
#XLABEL      : Energy (eV)
#YLABEL      : Counts
#XPOSITION   : 7.84947
#YPOSITION   : 1.95178
#ZPOSITION   : 31.03511
#EDSDET      : SD
##SPECIMEN   : SPI MM2 Pyrite[5][all]
##DET_HASH   : 12273538-fd48-a23f-0a19-f1e6fa85caef
##CALIB_HASH : 6abaa72c-aa41-8738-0be9-f592914732f3
##WORKING    : 15.0 mm
##DET_NAME   : EDAX All
##DET_MODE   : MediumLE
#SPECTRUM    :
18,
700,
10575,
2749,
16755,
63269,
3640,
3508,
4147,
4883,
5643,
5761,
6215,
6334,
6035,
6460,
107071,
83343,
14218,
3041,
3136,
3347,
3225,
3131,
3036,
2989,
2967,
2909,
2899,
2789,
2770,
2744,
2662,
3679,
2717,
2417,
2355,
2265,
2314,
2164,
2102,
2063,
1961,
1945,
2207,
22985,
68641,
2470,
1703,
1961,
9439,
5423,
1320,
1405,
1318,
1262,
1141,
1177,
1149,
1126,
1048,
1090,
1309,
1003,
976,
883,
906,
910,
855,
800,
816,
758,
780,
770,
720,
695,
669,
653,
609,
601,
591,
564,
561,
486,
464,
467,
447,
438,
471,
397,
370,
409,
345,
363,
324,
306,
270,
301,
275,
268,
265,
229,
223,
213,
211,
188,
161,
159,
145,
148,
153,
111,
121,
118,
133,
77,
114,
98,
88,
58,
99,
75,
75,
59,
51,
58,
46,
54,
31,
33,
33,
33,
36,
23,
19,
16,
14,
7,
20,
4,
8,
4,
7,
1,
1,
1,
0,
0,
0,
0,
0,
2,
0,
1,
2,
0,
0,
1,
0,
0,
0,
0,
0,
0,
0,
0,
0,
0,
0,
0,
1,
1,
0,
0,
0,
0,
0,
0,
1,
0,
1,
0,
0,
1,
0,
0,
0,
0,
0,
0,
0,
0,
0,
0,
0,
0,
0,
0,
0,
0,
0,
0,
0,
0,
0,
0,
0,
0,
0,
0,
0,
0,
0,
0,
0,
0,
0,
0,
0,
0,
0,
0,
0,
0,
0,
0,
0,
0,
0,
0,
0,
0,
0,
0,
0,
0,
0,
0,
0,
0,
0,
0,
0,
0,
0,
0,
0,
0,
0,
0,
0,
0,
0,
0,
0,
0,
0,
0,
0,
0,
0,
0,
0,
0,
0,
0,
0,
0,
0,
0,
0,
0,
0,
0,
0,
0,
0,
0,
0,
0,
0,
0,
0,
0,
0,
0,
0,
0,
0,
0,
0,
0,
0,
0,
#ENDOFDATA   :

File: SPI MM2 Pyrite[6][4].msa
#FORMAT      : EMSA/MAS Spectral Data File
#VERSION     : 1.0
#TITLE       : SPI MM2 Pyrite[6][all]
#DATE        : 13-MAR-2025
#TIME        : 12:56
#OWNER       : Unknown
#NPOINTS     : 4096
#NCOLUMNS    : 1
#XUNITS      : eV
#YUNITS      : counts
#DATATYPE    : Y
#XPERCHAN    : 9.99778
#OFFSET      : 1.69135
#BEAMKV      : 20
#SIGNALTYPE  : EDS
#ELEVANGLE   : 35
#AZIMANGLE   : 0
#LIVETIME    : 239.843
#REALTIME    : 262.063
#PROBECUR    : 1.02627
#TAUWIND     : 0
#TDEADLYR    : 0
#TACTLYR     : 0.045
#TALWIND     : 0.025
#CHOFFSET    : 0.0
#XLABEL      : Energy (eV)
#YLABEL      : Counts
#XPOSITION   : 7.88002
#YPOSITION   : 1.93359
#ZPOSITION   : 31.03511
#EDSDET      : SD
##SPECIMEN   : SPI MM2 Pyrite[6][all]
##DET_HASH   : 12273538-fd48-a23f-0a19-f1e6fa85caef
##CALIB_HASH : 6abaa72c-aa41-8738-0be9-f592914732f3
##WORKING    : 15.0 mm
##DET_NAME   : EDAX All
##DET_MODE   : MediumLE
#SPECTRUM    :
19,
759,
10748,
2627,
16601,
63380,
3609,
3618,
4303,
4775,
5617,
5859,
6220,
6501,
6108,
6539,
107608,
83809,
14348,
3086,
3130,
3363,
3314,
3131,
3099,
3129,
2992,
2913,
2912,
2801,
2835,
2612,
2783,
3737,
2674,
2389,
2382,
2193,
2271,
2195,
2100,
2035,
1942,
2014,
2183,
22855,
69320,
2437,
1754,
1896,
9259,
5477,
1329,
1365,
1299,
1167,
1193,
1165,
1160,
1136,
1054,
1085,
1295,
1020,
960,
950,
889,
915,
882,
789,
789,
785,
754,
716,
739,
680,
658,
635,
645,
557,
539,
571,
559,
556,
497,
425,
439,
461,
416,
400,
398,
407,
384,
342,
324,
320,
301,
304,
282,
259,
261,
244,
227,
219,
192,
214,
164,
157,
163,
146,
161,
133,
126,
129,
112,
123,
102,
89,
87,
85,
80,
67,
70,
61,
49,
66,
61,
46,
46,
38,
38,
31,
29,
30,
23,
21,
13,
5,
17,
6,
5,
8,
3,
2,
1,
2,
1,
0,
1,
0,
0,
0,
0,
1,
0,
1,
0,
1,
2,
0,
0,
2,
0,
0,
0,
0,
0,
0,
0,
0,
1,
0,
0,
0,
0,
0,
0,
0,
0,
1,
0,
0,
0,
0,
0,
0,
1,
0,
0,
0,
0,
0,
0,
0,
0,
0,
0,
0,
0,
0,
0,
0,
0,
0,
0,
0,
0,
0,
0,
0,
0,
0,
0,
0,
0,
0,
0,
0,
0,
0,
0,
0,
0,
0,
0,
0,
0,
0,
0,
0,
0,
0,
0,
0,
0,
0,
0,
0,
0,
0,
0,
0,
0,
0,
0,
0,
0,
0,
0,
0,
0,
0,
0,
0,
0,
0,
0,
0,
0,
0,
0,
0,
0,
0,
0,
0,
0,
0,
0,
0,
0,
0,
0,
0,
0,
0,
0,
0,
0,
0,
0,
0,
0,
0,
0,
0,
0,
0,
0,
0,
0,
0,
0,
0,
#ENDOFDATA   :

File: SPI MM2 Pyrite[7][4].msa
#FORMAT      : EMSA/MAS Spectral Data File
#VERSION     : 1.0
#TITLE       : SPI MM2 Pyrite[7][all]
#DATE        : 13-MAR-2025
#TIME        : 12:57
#OWNER       : Unknown
#NPOINTS     : 4096
#NCOLUMNS    : 1
#XUNITS      : eV
#YUNITS      : counts
#DATATYPE    : Y
#XPERCHAN    : 9.99778
#OFFSET      : 1.69135
#BEAMKV      : 20
#SIGNALTYPE  : EDS
#ELEVANGLE   : 35
#AZIMANGLE   : 0
#LIVETIME    : 239.858
#REALTIME    : 262.054
#PROBECUR    : 1.02627
#TAUWIND     : 0
#TDEADLYR    : 0
#TACTLYR     : 0.045
#TALWIND     : 0.025
#CHOFFSET    : 0.0
#XLABEL      : Energy (eV)
#YLABEL      : Counts
#XPOSITION   : 7.88986
#YPOSITION   : 1.90523
#ZPOSITION   : 31.03511
#EDSDET      : SD
##SPECIMEN   : SPI MM2 Pyrite[7][all]
##DET_HASH   : 12273538-fd48-a23f-0a19-f1e6fa85caef
##CALIB_HASH : 6abaa72c-aa41-8738-0be9-f592914732f3
##WORKING    : 15.0 mm
##DET_NAME   : EDAX All
##DET_MODE   : MediumLE
#SPECTRUM    :
15,
721,
10797,
2604,
16502,
63261,
3630,
3674,
4283,
4904,
5432,
5735,
6320,
6396,
5939,
6408,
106737,
83447,
14281,
3105,
3182,
3309,
3297,
3133,
2999,
2985,
3177,
2905,
2880,
2779,
2734,
2703,
2729,
3623,
2622,
2385,
2397,
2235,
2219,
2274,
2143,
2058,
1993,
1924,
2140,
22627,
69492,
2400,
1748,
1912,
9254,
5450,
1335,
1351,
1293,
1267,
1174,
1210,
1133,
1168,
1048,
1033,
1230,
1031,
962,
1006,
902,
910,
900,
815,
844,
762,
747,
666,
664,
687,
655,
674,
621,
594,
547,
579,
549,
491,
508,
485,
471,
433,
405,
384,
401,
415,
366,
357,
347,
317,
343,
303,
248,
248,
252,
253,
211,
212,
205,
177,
139,
166,
150,
166,
142,
146,
142,
143,
110,
110,
85,
83,
93,
76,
80,
70,
87,
47,
49,
56,
35,
52,
42,
37,
32,
23,
27,
17,
28,
17,
17,
14,
12,
5,
4,
3,
2,
2,
3,
2,
1,
1,
0,
3,
0,
2,
0,
0,
0,
1,
0,
1,
0,
0,
0,
0,
0,
0,
0,
0,
1,
0,
0,
0,
1,
1,
0,
0,
0,
0,
0,
1,
0,
1,
0,
0,
0,
0,
0,
1,
0,
0,
1,
0,
0,
0,
0,
0,
0,
0,
0,
0,
0,
0,
0,
0,
0,
0,
0,
0,
0,
0,
0,
0,
0,
0,
0,
0,
0,
0,
0,
0,
0,
0,
0,
0,
0,
0,
0,
0,
0,
0,
0,
0,
0,
0,
0,
0,
0,
0,
0,
0,
0,
0,
0,
0,
0,
0,
0,
0,
0,
0,
0,
0,
0,
0,
0,
0,
0,
0,
0,
0,
0,
0,
0,
0,
0,
0,
0,
0,
0,
0,
0,
0,
0,
0,
0,
0,
0,
0,
0,
0,
0,
0,
0,
0,
0,
0,
0,
0,
0,
0,
0,
0,
0,
0,
0,
0,
#ENDOFDATA   :

File: SPI MM2 Pyrope[0][4].msa
#FORMAT      : EMSA/MAS Spectral Data File
#VERSION     : 1.0
#TITLE       : SPI MM2 Pyrope[0][all]
#DATE        : 13-MAR-2025
#TIME        : 12:39
#OWNER       : Unknown
#NPOINTS     : 4096
#NCOLUMNS    : 1
#XUNITS      : eV
#YUNITS      : counts
#DATATYPE    : Y
#XPERCHAN    : 9.99778
#OFFSET      : 1.69135
#BEAMKV      : 20
#SIGNALTYPE  : EDS
#ELEVANGLE   : 35
#AZIMANGLE   : 0
#LIVETIME    : 239.853
#REALTIME    : 255.089
#PROBECUR    : 1.02627
#TAUWIND     : 0
#TDEADLYR    : 0
#TACTLYR     : 0.045
#TALWIND     : 0.025
#CHOFFSET    : 0.0
#XLABEL      : Energy (eV)
#YLABEL      : Counts
#XPOSITION   : 4.61007
#YPOSITION   : 1.53359
#ZPOSITION   : 31.03511
#EDSDET      : SD
##SPECIMEN   : SPI MM2 Pyrope[0][all]
##D2STDCMP   : Pyrope,(O:47.6258),(Mg:18.0873),(Al:13.3861),(Si:20.9007),5.0
##DET_HASH   : 12273538-fd48-a23f-0a19-f1e6fa85caef
##CALIB_HASH : 6abaa72c-aa41-8738-0be9-f592914732f3
##WORKING    : 15.0 mm
##DET_NAME   : EDAX All
##DET_MODE   : MediumLE
#SPECTRUM    :
19,
167,
9339,
5949,
58857,
7205,
2620,
3247,
4304,
94763,
8443,
30649,
40997,
19952,
2546,
2416,
2729,
2519,
2431,
2393,
2498,
2344,
2294,
2335,
2130,
2161,
9292,
4297,
2105,
2972,
1710,
1653,
2386,
1642,
1560,
1555,
1468,
1343,
1828,
2547,
1221,
1186,
1785,
1197,
1025,
3886,
10332,
1112,
910,
942,
1981,
1389,
785,
764,
726,
704,
695,
661,
674,
651,
592,
621,
581,
531,
509,
544,
477,
450,
455,
443,
409,
394,
392,
360,
361,
354,
378,
328,
339,
315,
292,
304,
255,
282,
235,
233,
219,
204,
202,
178,
225,
195,
169,
160,
149,
149,
131,
140,
146,
131,
128,
108,
94,
94,
100,
86,
92,
75,
65,
66,
63,
56,
74,
49,
45,
47,
51,
44,
46,
32,
32,
31,
30,
29,
28,
25,
21,
20,
17,
10,
9,
14,
8,
20,
6,
6,
7,
4,
9,
2,
0,
1,
0,
1,
1,
0,
0,
0,
0,
0,
0,
0,
0,
0,
1,
0,
0,
0,
1,
0,
0,
0,
0,
0,
0,
0,
0,
1,
0,
0,
0,
0,
0,
0,
0,
0,
0,
0,
0,
0,
0,
0,
0,
0,
0,
0,
0,
0,
0,
0,
0,
0,
0,
0,
0,
0,
0,
0,
0,
0,
0,
0,
0,
0,
0,
0,
0,
0,
0,
0,
0,
0,
0,
0,
0,
0,
0,
0,
0,
0,
0,
0,
0,
0,
0,
0,
0,
0,
0,
0,
0,
0,
0,
0,
0,
0,
0,
0,
0,
0,
0,
0,
0,
0,
0,
0,
0,
0,
0,
0,
0,
0,
0,
0,
0,
0,
0,
0,
0,
0,
0,
0,
0,
0,
0,
0,
0,
0,
0,
0,
0,
0,
0,
0,
0,
0,
0,
0,
0,
0,
0,
0,
0,
0,
0,
0,
0,
0,
0,
0,
0,
0,
0,
0,
#ENDOFDATA   :