Folder: spex_quant/N132962/Quantification/20 keV/MMM2 (part 4)

File: SPI MM2 Rhodonite[1][4].msa
#FORMAT      : EMSA/MAS Spectral Data File
#VERSION     : 1.0
#TITLE       : SPI MM2 Rhodonite[1][all]
#DATE        : 13-MAR-2025
#TIME        : 12:22
#OWNER       : Unknown
#NPOINTS     : 4096
#NCOLUMNS    : 1
#XUNITS      : eV
#YUNITS      : counts
#DATATYPE    : Y
#XPERCHAN    : 9.99778
#OFFSET      : 1.69135
#BEAMKV      : 20
#SIGNALTYPE  : EDS
#ELEVANGLE   : 35
#AZIMANGLE   : 0
#LIVETIME    : 239.589
#REALTIME    : 255.529
#PROBECUR    : 1.02616
#TAUWIND     : 0
#TDEADLYR    : 0
#TACTLYR     : 0.045
#TALWIND     : 0.025
#CHOFFSET    : 0.0
#XLABEL      : Energy (eV)
#YLABEL      : Counts
#XPOSITION   : 0.05495
#YPOSITION   : 1.2317
#ZPOSITION   : 31.03511
#EDSDET      : SD
##SPECIMEN   : SPI MM2 Rhodonite[1][all]
##DET_HASH   : 12273538-fd48-a23f-0a19-f1e6fa85caef
##CALIB_HASH : 6abaa72c-aa41-8738-0be9-f592914732f3
##WORKING    : 15.0 mm
##DET_NAME   : EDAX All
##DET_MODE   : MediumLE
#SPECTRUM    :
21,
210,
11078,
6628,
59689,
5681,
2208,
2759,
3143,
9052,
4628,
8107,
50551,
24465,
3157,
2998,
3432,
3113,
3173,
3030,
2988,
2972,
2825,
2835,
2617,
2791,
10545,
4991,
2777,
3563,
2415,
2079,
2044,
1961,
1919,
1905,
1784,
1720,
1708,
1669,
1632,
3398,
66089,
6701,
1514,
3036,
12362,
3519,
1118,
1135,
1509,
1235,
962,
978,
987,
951,
873,
846,
856,
781,
783,
728,
745,
717,
722,
680,
662,
584,
624,
596,
579,
512,
514,
511,
469,
483,
436,
475,
435,
448,
379,
413,
340,
374,
361,
323,
328,
298,
309,
263,
263,
241,
208,
244,
229,
202,
218,
164,
181,
163,
168,
152,
133,
142,
123,
150,
128,
114,
107,
124,
91,
76,
84,
81,
68,
69,
60,
59,
58,
52,
42,
47,
41,
45,
41,
37,
32,
31,
28,
24,
15,
20,
20,
14,
9,
10,
9,
8,
9,
3,
3,
1,
1,
0,
0,
0,
0,
0,
2,
0,
0,
0,
0,
0,
0,
1,
2,
0,
0,
0,
0,
0,
0,
0,
1,
0,
0,
0,
0,
0,
1,
0,
0,
0,
0,
0,
0,
0,
0,
0,
0,
0,
1,
0,
0,
0,
0,
0,
0,
0,
0,
0,
0,
0,
0,
0,
0,
0,
0,
0,
0,
0,
0,
0,
0,
0,
0,
0,
0,
0,
0,
0,
0,
0,
0,
0,
0,
0,
0,
0,
0,
0,
0,
0,
0,
0,
0,
0,
0,
0,
0,
0,
0,
0,
0,
0,
0,
0,
0,
0,
0,
0,
0,
0,
0,
0,
0,
0,
0,
0,
0,
0,
0,
0,
0,
0,
0,
0,
0,
0,
0,
0,
0,
0,
0,
0,
0,
0,
0,
0,
0,
0,
0,
0,
0,
0,
0,
0,
0,
0,
0,
0,
0,
0,
0,
0,
0,
0,
0,
0,
0,
0,
0,
0,
#ENDOFDATA   :

File: SPI MM2 Rhodonite[2][4].msa
#FORMAT      : EMSA/MAS Spectral Data File
#VERSION     : 1.0
#TITLE       : SPI MM2 Rhodonite[2][all]
#DATE        : 13-MAR-2025
#TIME        : 12:23
#OWNER       : Unknown
#NPOINTS     : 4096
#NCOLUMNS    : 1
#XUNITS      : eV
#YUNITS      : counts
#DATATYPE    : Y
#XPERCHAN    : 9.99778
#OFFSET      : 1.69135
#BEAMKV      : 20
#SIGNALTYPE  : EDS
#ELEVANGLE   : 35
#AZIMANGLE   : 0
#LIVETIME    : 239.829
#REALTIME    : 256.233
#PROBECUR    : 1.02616
#TAUWIND     : 0
#TDEADLYR    : 0
#TACTLYR     : 0.045
#TALWIND     : 0.025
#CHOFFSET    : 0.0
#XLABEL      : Energy (eV)
#YLABEL      : Counts
#XPOSITION   : 0.01874
#YPOSITION   : 1.2333
#ZPOSITION   : 31.03511
#EDSDET      : SD
##SPECIMEN   : SPI MM2 Rhodonite[2][all]
##DET_HASH   : 12273538-fd48-a23f-0a19-f1e6fa85caef
##CALIB_HASH : 6abaa72c-aa41-8738-0be9-f592914732f3
##WORKING    : 15.0 mm
##DET_NAME   : EDAX All
##DET_MODE   : MediumLE
#SPECTRUM    :
21,
211,
10803,
6764,
61993,
5911,
2351,
2825,
3269,
10156,
4205,
5013,
53062,
25726,
3275,
3230,
3672,
3361,
3212,
3145,
3119,
3022,
2926,
2841,
2861,
2988,
11041,
5157,
2800,
3704,
2421,
2191,
2058,
2066,
2009,
1887,
1838,
1766,
1768,
1691,
1718,
3501,
70544,
7202,
1551,
3186,
13208,
3728,
1099,
1061,
1585,
1314,
951,
1048,
996,
1014,
912,
860,
856,
835,
827,
768,
737,
746,
677,
682,
672,
640,
633,
627,
606,
611,
552,
498,
462,
467,
519,
460,
445,
386,
404,
378,
353,
404,
359,
327,
300,
341,
287,
294,
238,
261,
235,
258,
252,
234,
198,
192,
176,
181,
162,
174,
141,
173,
151,
121,
136,
114,
111,
99,
80,
94,
87,
72,
64,
59,
74,
77,
63,
51,
53,
56,
35,
47,
38,
37,
39,
24,
20,
24,
14,
18,
15,
21,
17,
12,
9,
5,
7,
5,
2,
3,
1,
1,
0,
2,
1,
0,
0,
0,
0,
0,
0,
0,
1,
0,
0,
0,
0,
0,
0,
1,
1,
0,
0,
0,
0,
0,
0,
0,
0,
1,
0,
0,
0,
0,
0,
0,
0,
0,
0,
0,
1,
0,
0,
0,
0,
0,
0,
1,
0,
0,
0,
0,
0,
0,
0,
0,
0,
0,
0,
0,
0,
0,
0,
0,
0,
0,
0,
0,
0,
0,
0,
0,
0,
0,
0,
0,
0,
0,
0,
0,
0,
0,
0,
0,
0,
0,
0,
0,
0,
0,
0,
0,
0,
0,
0,
0,
0,
0,
0,
0,
0,
0,
0,
0,
0,
0,
0,
0,
0,
0,
0,
0,
0,
0,
0,
0,
0,
0,
0,
0,
0,
0,
0,
0,
0,
0,
0,
0,
0,
0,
0,
0,
0,
0,
0,
0,
0,
0,
0,
0,
0,
0,
0,
0,
0,
0,
0,
0,
0,
0,
0,
0,
#ENDOFDATA   :

File: SPI MM2 Rhodonite[3][4].msa
#FORMAT      : EMSA/MAS Spectral Data File
#VERSION     : 1.0
#TITLE       : SPI MM2 Rhodonite[3][all]
#DATE        : 13-MAR-2025
#TIME        : 12:24
#OWNER       : Unknown
#NPOINTS     : 4096
#NCOLUMNS    : 1
#XUNITS      : eV
#YUNITS      : counts
#DATATYPE    : Y
#XPERCHAN    : 9.99778
#OFFSET      : 1.69135
#BEAMKV      : 20
#SIGNALTYPE  : EDS
#ELEVANGLE   : 35
#AZIMANGLE   : 0
#LIVETIME    : 239.833
#REALTIME    : 256.23
#PROBECUR    : 1.02616
#TAUWIND     : 0
#TDEADLYR    : 0
#TACTLYR     : 0.045
#TALWIND     : 0.025
#CHOFFSET    : 0.0
#XLABEL      : Energy (eV)
#YLABEL      : Counts
#XPOSITION   : -0.01943
#YPOSITION   : 1.23308
#ZPOSITION   : 31.03511
#EDSDET      : SD
##SPECIMEN   : SPI MM2 Rhodonite[3][all]
##DET_HASH   : 12273538-fd48-a23f-0a19-f1e6fa85caef
##CALIB_HASH : 6abaa72c-aa41-8738-0be9-f592914732f3
##WORKING    : 15.0 mm
##DET_NAME   : EDAX All
##DET_MODE   : MediumLE
#SPECTRUM    :
16,
226,
10614,
6759,
62271,
5928,
2331,
2844,
3297,
10135,
4269,
5029,
52652,
25653,
3315,
3147,
3650,
3307,
3285,
3016,
3143,
3125,
2874,
2786,
2733,
2978,
10966,
5181,
2815,
3615,
2386,
2123,
2054,
2111,
2067,
1910,
1954,
1807,
1710,
1712,
1730,
3490,
70488,
7214,
1505,
3189,
13059,
3739,
1123,
1090,
1611,
1301,
1000,
1006,
1026,
992,
853,
889,
860,
814,
786,
811,
749,
729,
750,
663,
686,
604,
614,
551,
567,
601,
558,
495,
530,
516,
448,
483,
473,
430,
414,
402,
395,
396,
380,
365,
312,
286,
324,
297,
295,
225,
238,
250,
255,
179,
169,
206,
188,
175,
145,
157,
163,
150,
160,
137,
145,
122,
118,
86,
100,
89,
96,
81,
76,
72,
57,
70,
58,
54,
54,
43,
43,
45,
40,
30,
27,
30,
19,
19,
24,
17,
16,
11,
12,
7,
17,
8,
10,
10,
7,
2,
0,
0,
1,
0,
0,
3,
0,
0,
0,
0,
0,
0,
0,
1,
0,
0,
0,
0,
0,
0,
0,
0,
1,
0,
0,
0,
0,
0,
0,
0,
0,
0,
0,
0,
0,
0,
0,
0,
0,
0,
0,
0,
0,
0,
0,
0,
0,
0,
0,
0,
0,
0,
0,
0,
0,
0,
0,
0,
0,
0,
0,
0,
0,
0,
0,
0,
0,
1,
0,
0,
0,
0,
0,
0,
0,
0,
0,
0,
0,
0,
0,
0,
0,
0,
0,
0,
0,
0,
0,
0,
0,
0,
0,
0,
0,
0,
0,
0,
0,
0,
0,
0,
0,
0,
0,
0,
0,
0,
0,
0,
0,
0,
0,
0,
0,
0,
0,
0,
0,
0,
0,
0,
0,
0,
0,
0,
0,
0,
0,
0,
0,
0,
0,
0,
0,
0,
0,
0,
0,
0,
0,
0,
0,
0,
0,
0,
0,
0,
0,
0,
0,
0,
#ENDOFDATA   :

File: SPI MM2 Rhodonite[4][4].msa
#FORMAT      : EMSA/MAS Spectral Data File
#VERSION     : 1.0
#TITLE       : SPI MM2 Rhodonite[4][all]
#DATE        : 13-MAR-2025
#TIME        : 12:26
#OWNER       : Unknown
#NPOINTS     : 4096
#NCOLUMNS    : 1
#XUNITS      : eV
#YUNITS      : counts
#DATATYPE    : Y
#XPERCHAN    : 9.99778
#OFFSET      : 1.69135
#BEAMKV      : 20
#SIGNALTYPE  : EDS
#ELEVANGLE   : 35
#AZIMANGLE   : 0
#LIVETIME    : 239.755
#REALTIME    : 256.226
#PROBECUR    : 1.02616
#TAUWIND     : 0
#TDEADLYR    : 0
#TACTLYR     : 0.045
#TALWIND     : 0.025
#CHOFFSET    : 0.0
#XLABEL      : Energy (eV)
#YLABEL      : Counts
#XPOSITION   : 0.02909
#YPOSITION   : 1.24637
#ZPOSITION   : 31.03511
#EDSDET      : SD
##SPECIMEN   : SPI MM2 Rhodonite[4][all]
##DET_HASH   : 12273538-fd48-a23f-0a19-f1e6fa85caef
##CALIB_HASH : 6abaa72c-aa41-8738-0be9-f592914732f3
##WORKING    : 15.0 mm
##DET_NAME   : EDAX All
##DET_MODE   : MediumLE
#SPECTRUM    :
23,
229,
10992,
7065,
63117,
5997,
2326,
2825,
3352,
10156,
4276,
5172,
53165,
25780,
3286,
3092,
3693,
3498,
3291,
3184,
3097,
2973,
2942,
2920,
2804,
2893,
10894,
5171,
2696,
3716,
2476,
2164,
2099,
2038,
1968,
1883,
1852,
1899,
1757,
1751,
1731,
3470,
70773,
7224,
1525,
3139,
13004,
3785,
1140,
1113,
1602,
1271,
969,
996,
1063,
1016,
860,
893,
833,
830,
738,
788,
745,
747,
704,
682,
664,
627,
665,
617,
586,
572,
556,
525,
484,
493,
472,
447,
441,
430,
390,
418,
360,
328,
362,
355,
319,
329,
279,
296,
288,
263,
240,
220,
233,
206,
197,
197,
194,
162,
168,
141,
159,
162,
114,
121,
129,
118,
125,
96,
104,
87,
72,
84,
82,
66,
81,
66,
63,
59,
53,
57,
46,
37,
36,
30,
40,
38,
26,
22,
22,
28,
25,
12,
8,
9,
11,
10,
15,
1,
5,
1,
1,
1,
0,
0,
0,
1,
0,
0,
0,
1,
2,
0,
0,
0,
1,
0,
1,
0,
0,
0,
0,
0,
0,
1,
0,
0,
0,
0,
0,
0,
0,
1,
0,
0,
0,
0,
0,
0,
0,
0,
0,
0,
0,
0,
0,
0,
0,
0,
0,
0,
0,
0,
0,
0,
0,
0,
0,
0,
0,
0,
0,
0,
0,
0,
0,
0,
0,
0,
0,
0,
0,
0,
0,
0,
0,
0,
0,
0,
0,
0,
0,
0,
0,
0,
0,
0,
0,
0,
0,
0,
0,
0,
0,
0,
0,
0,
0,
0,
0,
0,
0,
0,
0,
0,
0,
0,
0,
0,
0,
0,
0,
0,
0,
0,
0,
0,
0,
0,
0,
0,
0,
0,
0,
0,
0,
0,
0,
0,
0,
0,
0,
0,
0,
0,
0,
0,
0,
0,
0,
0,
0,
0,
0,
0,
0,
0,
0,
0,
0,
0,
0,
0,
#ENDOFDATA   :

File: SPI MM2 Rhodonite[5][4].msa
#FORMAT      : EMSA/MAS Spectral Data File
#VERSION     : 1.0
#TITLE       : SPI MM2 Rhodonite[5][all]
#DATE        : 13-MAR-2025
#TIME        : 12:27
#OWNER       : Unknown
#NPOINTS     : 4096
#NCOLUMNS    : 1
#XUNITS      : eV
#YUNITS      : counts
#DATATYPE    : Y
#XPERCHAN    : 9.99778
#OFFSET      : 1.69135
#BEAMKV      : 20
#SIGNALTYPE  : EDS
#ELEVANGLE   : 35
#AZIMANGLE   : 0
#LIVETIME    : 239.88
#REALTIME    : 256.304
#PROBECUR    : 1.02616
#TAUWIND     : 0
#TDEADLYR    : 0
#TACTLYR     : 0.045
#TALWIND     : 0.025
#CHOFFSET    : 0.0
#XLABEL      : Energy (eV)
#YLABEL      : Counts
#XPOSITION   : 0.10887
#YPOSITION   : 1.16954
#ZPOSITION   : 31.03511
#EDSDET      : SD
##SPECIMEN   : SPI MM2 Rhodonite[5][all]
##DET_HASH   : 12273538-fd48-a23f-0a19-f1e6fa85caef
##CALIB_HASH : 6abaa72c-aa41-8738-0be9-f592914732f3
##WORKING    : 15.0 mm
##DET_NAME   : EDAX All
##DET_MODE   : MediumLE
#SPECTRUM    :
14,
217,
10858,
6844,
62767,
6021,
2310,
2828,
3292,
10240,
4308,
5088,
53339,
25689,
3347,
3291,
3640,
3317,
3182,
3233,
3104,
2991,
2968,
2919,
2781,
3022,
10895,
5156,
2815,
3681,
2437,
2162,
2133,
2110,
1896,
1963,
1876,
1824,
1736,
1733,
1721,
3463,
70240,
7002,
1514,
3066,
13212,
3816,
1161,
1102,
1570,
1324,
1018,
1043,
986,
982,
968,
875,
872,
830,
780,
783,
752,
690,
736,
663,
657,
605,
623,
609,
605,
542,
531,
492,
527,
467,
469,
461,
442,
421,
375,
384,
406,
351,
363,
390,
356,
315,
295,
274,
272,
269,
246,
244,
250,
209,
203,
187,
193,
158,
171,
169,
154,
153,
125,
147,
128,
126,
111,
106,
95,
91,
82,
85,
72,
82,
71,
71,
65,
44,
52,
48,
58,
30,
46,
35,
29,
17,
19,
20,
14,
27,
11,
12,
12,
9,
15,
10,
4,
3,
2,
1,
1,
2,
0,
0,
0,
2,
0,
0,
0,
0,
0,
0,
0,
0,
0,
0,
0,
0,
0,
0,
0,
0,
0,
0,
0,
0,
0,
0,
0,
0,
1,
1,
0,
0,
0,
0,
0,
0,
0,
0,
0,
0,
0,
0,
0,
0,
0,
0,
0,
0,
0,
0,
0,
0,
0,
0,
0,
0,
0,
0,
0,
0,
0,
0,
0,
0,
0,
0,
0,
0,
1,
0,
0,
0,
0,
0,
0,
0,
0,
0,
0,
0,
0,
0,
0,
0,
0,
0,
0,
0,
0,
0,
0,
0,
0,
0,
0,
0,
0,
0,
0,
0,
0,
0,
0,
0,
0,
0,
0,
0,
0,
0,
0,
0,
0,
0,
0,
0,
0,
0,
0,
0,
0,
0,
0,
0,
0,
0,
0,
0,
0,
0,
0,
0,
0,
0,
0,
0,
0,
0,
0,
0,
0,
0,
0,
0,
0,
0,
0,
0,
0,
0,
#ENDOFDATA   :

File: SPI MM2 Rhodonite[6][4].msa
#FORMAT      : EMSA/MAS Spectral Data File
#VERSION     : 1.0
#TITLE       : SPI MM2 Rhodonite[6][all]
#DATE        : 13-MAR-2025
#TIME        : 12:28
#OWNER       : Unknown
#NPOINTS     : 4096
#NCOLUMNS    : 1
#XUNITS      : eV
#YUNITS      : counts
#DATATYPE    : Y
#XPERCHAN    : 9.99778
#OFFSET      : 1.69135
#BEAMKV      : 20
#SIGNALTYPE  : EDS
#ELEVANGLE   : 35
#AZIMANGLE   : 0
#LIVETIME    : 239.855
#REALTIME    : 255.716
#PROBECUR    : 1.02616
#TAUWIND     : 0
#TDEADLYR    : 0
#TACTLYR     : 0.045
#TALWIND     : 0.025
#CHOFFSET    : 0.0
#XLABEL      : Energy (eV)
#YLABEL      : Counts
#XPOSITION   : 0.046
#YPOSITION   : 1.14224
#ZPOSITION   : 31.03511
#EDSDET      : SD
##SPECIMEN   : SPI MM2 Rhodonite[6][all]
##DET_HASH   : 12273538-fd48-a23f-0a19-f1e6fa85caef
##CALIB_HASH : 6abaa72c-aa41-8738-0be9-f592914732f3
##WORKING    : 15.0 mm
##DET_NAME   : EDAX All
##DET_MODE   : MediumLE
#SPECTRUM    :
23,
205,
11078,
6442,
59201,
5682,
2259,
2629,
3076,
9705,
4114,
5028,
50675,
24866,
3215,
3065,
3482,
3025,
3072,
3095,
3024,
2970,
2698,
2847,
2713,
2886,
10918,
5092,
2796,
3715,
2396,
2134,
2030,
2051,
1920,
1840,
1816,
1701,
1676,
1748,
1718,
3349,
69385,
7146,
1440,
3129,
12852,
3824,
1089,
1025,
1599,
1317,
951,
1053,
993,
933,
867,
849,
853,
819,
798,
743,
754,
671,
739,
674,
627,
644,
615,
640,
603,
565,
540,
528,
515,
489,
420,
448,
463,
464,
415,
387,
366,
383,
364,
327,
336,
296,
295,
271,
275,
280,
249,
251,
216,
217,
225,
190,
186,
175,
185,
127,
152,
112,
148,
129,
113,
111,
133,
101,
111,
93,
88,
85,
65,
84,
74,
56,
67,
74,
50,
54,
47,
37,
41,
30,
23,
25,
29,
25,
27,
16,
10,
17,
12,
7,
13,
8,
4,
6,
5,
1,
1,
0,
0,
0,
1,
0,
1,
0,
0,
0,
1,
0,
0,
0,
0,
0,
2,
0,
0,
0,
0,
0,
0,
1,
0,
0,
0,
0,
0,
0,
0,
0,
0,
0,
0,
0,
0,
0,
0,
0,
1,
0,
0,
0,
0,
1,
0,
0,
0,
0,
0,
0,
0,
0,
0,
0,
0,
0,
0,
0,
0,
0,
0,
0,
0,
0,
0,
0,
0,
0,
0,
0,
0,
0,
0,
0,
0,
0,
0,
0,
0,
0,
0,
0,
0,
0,
0,
0,
0,
0,
0,
0,
0,
0,
0,
0,
0,
0,
0,
0,
0,
0,
0,
0,
0,
0,
0,
0,
0,
0,
0,
0,
0,
0,
0,
0,
0,
0,
0,
0,
0,
0,
0,
0,
0,
0,
0,
0,
0,
0,
0,
0,
0,
0,
0,
0,
0,
0,
0,
0,
0,
0,
0,
0,
0,
0,
0,
0,
0,
0,
0,
0,
#ENDOFDATA   :

File: SPI MM2 Rhodonite[7][4].msa
#FORMAT      : EMSA/MAS Spectral Data File
#VERSION     : 1.0
#TITLE       : SPI MM2 Rhodonite[7][all]
#DATE        : 13-MAR-2025
#TIME        : 12:29
#OWNER       : Unknown
#NPOINTS     : 4096
#NCOLUMNS    : 1
#XUNITS      : eV
#YUNITS      : counts
#DATATYPE    : Y
#XPERCHAN    : 9.99778
#OFFSET      : 1.69135
#BEAMKV      : 20
#SIGNALTYPE  : EDS
#ELEVANGLE   : 35
#AZIMANGLE   : 0
#LIVETIME    : 239.931
#REALTIME    : 255.982
#PROBECUR    : 1.02616
#TAUWIND     : 0
#TDEADLYR    : 0
#TACTLYR     : 0.045
#TALWIND     : 0.025
#CHOFFSET    : 0.0
#XLABEL      : Energy (eV)
#YLABEL      : Counts
#XPOSITION   : 0.12776
#YPOSITION   : 1.23483
#ZPOSITION   : 31.03511
#EDSDET      : SD
##SPECIMEN   : SPI MM2 Rhodonite[7][all]
##DET_HASH   : 12273538-fd48-a23f-0a19-f1e6fa85caef
##CALIB_HASH : 6abaa72c-aa41-8738-0be9-f592914732f3
##WORKING    : 15.0 mm
##DET_NAME   : EDAX All
##DET_MODE   : MediumLE
#SPECTRUM    :
15,
216,
14663,
6731,
60390,
5828,
2308,
2683,
3364,
9964,
4234,
4875,
51573,
25200,
3179,
3141,
3609,
3279,
3161,
3170,
3173,
3029,
2839,
2813,
2686,
2927,
10634,
5093,
2764,
3527,
2448,
2133,
1993,
2044,
1998,
1850,
1870,
1756,
1675,
1633,
1643,
3486,
68565,
7058,
1432,
3239,
12845,
3741,
1126,
1134,
1577,
1216,
1005,
964,
974,
983,
877,
865,
819,
813,
748,
769,
776,
686,
666,
655,
662,
637,
666,
595,
566,
562,
527,
521,
477,
458,
467,
447,
422,
413,
435,
383,
364,
346,
381,
332,
291,
307,
305,
312,
275,
241,
258,
231,
205,
227,
197,
175,
178,
152,
156,
151,
162,
145,
142,
131,
131,
111,
119,
102,
91,
93,
89,
76,
68,
59,
62,
74,
62,
66,
43,
41,
49,
43,
37,
35,
33,
27,
20,
23,
24,
14,
17,
16,
18,
13,
15,
9,
8,
2,
6,
5,
1,
0,
0,
0,
0,
0,
0,
1,
0,
0,
1,
0,
0,
0,
1,
0,
0,
1,
0,
0,
0,
0,
0,
1,
0,
0,
0,
0,
0,
0,
0,
0,
0,
0,
0,
0,
0,
0,
0,
0,
0,
0,
0,
0,
0,
0,
0,
0,
0,
0,
0,
0,
0,
0,
0,
0,
0,
0,
0,
0,
0,
0,
0,
0,
0,
0,
0,
0,
0,
0,
0,
0,
0,
0,
0,
0,
0,
0,
0,
0,
0,
0,
0,
0,
0,
0,
0,
0,
0,
0,
0,
0,
0,
0,
0,
0,
0,
0,
0,
0,
0,
0,
0,
0,
0,
0,
0,
0,
0,
0,
0,
0,
0,
0,
0,
0,
0,
0,
0,
0,
0,
0,
0,
0,
0,
0,
0,
0,
0,
0,
0,
0,
0,
0,
0,
0,
0,
0,
0,
0,
0,
0,
0,
0,
0,
0,
0,
0,
0,
0,
0,
0,
#ENDOFDATA   :

File: SPI MM2 Scheelite[0][4].msa
#FORMAT      : EMSA/MAS Spectral Data File
#VERSION     : 1.0
#TITLE       : SPI MM2 Scheelite[0][all]
#DATE        : 13-MAR-2025
#TIME        : 12:12
#OWNER       : Unknown
#NPOINTS     : 4096
#NCOLUMNS    : 1
#XUNITS      : eV
#YUNITS      : counts
#DATATYPE    : Y
#XPERCHAN    : 9.99778
#OFFSET      : 1.69135
#BEAMKV      : 20
#SIGNALTYPE  : EDS
#ELEVANGLE   : 35
#AZIMANGLE   : 0
#LIVETIME    : 239.966
#REALTIME    : 263.0887
#PROBECUR    : 1.02616
#TAUWIND     : 0
#TDEADLYR    : 0
#TACTLYR     : 0.045
#TALWIND     : 0.025
#CHOFFSET    : 0.0
#XLABEL      : Energy (eV)
#YLABEL      : Counts
#XPOSITION   : -2.79232
#YPOSITION   : 1.98449
#ZPOSITION   : 31.03511
#EDSDET      : SD
##SPECIMEN   : SPI MM2 Scheelite[0][all]
##DET_HASH   : 12273538-fd48-a23f-0a19-f1e6fa85caef
##CALIB_HASH : 6abaa72c-aa41-8738-0be9-f592914732f3
##WORKING    : 15.0 mm
##DET_NAME   : EDAX All
##DET_MODE   : MediumLE
#SPECTRUM    :
28,
496,
17878,
4591,
20034,
5074,
6186,
6817,
7608,
8763,
21184,
10153,
21631,
180695,
7444,
6133,
5595,
5499,
4804,
4748,
4866,
4813,
4767,
4909,
4781,
5327,
37192,
15178,
6063,
9494,
4368,
4183,
4173,
4257,
4180,
4026,
4050,
3868,
3825,
4034,
3717,
3566,
3485,
3361,
3329,
3341,
3542,
3138,
3007,
3025,
2896,
2792,
3203,
3935,
2754,
2611,
2558,
2473,
2493,
7008,
27520,
4169,
2365,
2160,
2061,
1995,
1907,
2009,
3908,
10782,
4823,
6197,
2665,
1812,
1536,
1479,
1351,
1301,
1356,
1316,
2000,
2137,
1277,
1536,
1179,
1059,
1040,
1006,
931,
903,
845,
784,
807,
727,
744,
713,
687,
699,
653,
561,
566,
527,
528,
506,
491,
504,
415,
399,
384,
393,
382,
368,
302,
286,
304,
253,
228,
262,
248,
201,
226,
214,
190,
177,
153,
137,
148,
122,
115,
111,
103,
87,
98,
88,
65,
52,
46,
44,
35,
30,
25,
20,
3,
5,
5,
3,
1,
1,
0,
1,
1,
1,
0,
1,
1,
1,
2,
0,
1,
2,
3,
1,
1,
0,
3,
1,
2,
1,
0,
1,
2,
1,
2,
0,
1,
0,
0,
1,
0,
1,
0,
0,
1,
1,
0,
0,
1,
0,
0,
2,
1,
0,
1,
0,
0,
0,
0,
0,
0,
0,
0,
0,
0,
0,
0,
1,
0,
0,
1,
0,
0,
0,
0,
0,
0,
0,
0,
0,
0,
0,
0,
0,
0,
0,
0,
1,
0,
0,
0,
0,
0,
0,
0,
0,
0,
0,
0,
0,
0,
0,
0,
0,
0,
0,
0,
0,
0,
0,
0,
0,
0,
0,
0,
0,
0,
0,
0,
0,
0,
0,
0,
0,
0,
0,
0,
0,
0,
0,
0,
0,
0,
0,
0,
0,
0,
0,
0,
0,
0,
0,
0,
0,
0,
0,
0,
0,
0,
0,
0,
0,
0,
0,
0,
0,
#ENDOFDATA   :

File: SPI MM2 Scheelite[1][4].msa
#FORMAT      : EMSA/MAS Spectral Data File
#VERSION     : 1.0
#TITLE       : SPI MM2 Scheelite[1][all]
#DATE        : 13-MAR-2025
#TIME        : 12:13
#OWNER       : Unknown
#NPOINTS     : 4096
#NCOLUMNS    : 1
#XUNITS      : eV
#YUNITS      : counts
#DATATYPE    : Y
#XPERCHAN    : 9.99778
#OFFSET      : 1.69135
#BEAMKV      : 20
#SIGNALTYPE  : EDS
#ELEVANGLE   : 35
#AZIMANGLE   : 0
#LIVETIME    : 240.1164
#REALTIME    : 263.3464
#PROBECUR    : 1.02616
#TAUWIND     : 0
#TDEADLYR    : 0
#TACTLYR     : 0.045
#TALWIND     : 0.025
#CHOFFSET    : 0.0
#XLABEL      : Energy (eV)
#YLABEL      : Counts
#XPOSITION   : -2.84133
#YPOSITION   : 2.00301
#ZPOSITION   : 31.03511
#EDSDET      : SD
##SPECIMEN   : SPI MM2 Scheelite[1][all]
##DET_HASH   : 12273538-fd48-a23f-0a19-f1e6fa85caef
##CALIB_HASH : 6abaa72c-aa41-8738-0be9-f592914732f3
##WORKING    : 15.0 mm
##DET_NAME   : EDAX All
##DET_MODE   : MediumLE
#SPECTRUM    :
22,
529,
18165,
4787,
20059,
5093,
6165,
7021,
7730,
8899,
21252,
10049,
21509,
182218,
7424,
6164,
5499,
5569,
4902,
4800,
4932,
4800,
5105,
4977,
4902,
5242,
37727,
15058,
6134,
9636,
4416,
4296,
4238,
4191,
4163,
3960,
3983,
3929,
3841,
3885,
3650,
3609,
3563,
3434,
3382,
3419,
3470,
3142,
3001,
3081,
2899,
2814,
3141,
3832,
2735,
2567,
2505,
2387,
2652,
7020,
27419,
4359,
2435,
2216,
2118,
1966,
1996,
2033,
3929,
10914,
4844,
6353,
2704,
1781,
1558,
1412,
1410,
1316,
1431,
1293,
2029,
2218,
1326,
1536,
1230,
1054,
1084,
1011,
938,
920,
818,
811,
788,
754,
778,
678,
673,
598,
667,
641,
567,
543,
500,
475,
477,
435,
459,
424,
399,
365,
328,
337,
308,
284,
307,
280,
236,
238,
239,
220,
210,
207,
205,
150,
152,
154,
130,
110,
130,
94,
90,
87,
73,
61,
64,
47,
49,
45,
32,
22,
27,
12,
5,
5,
3,
3,
4,
1,
3,
4,
5,
1,
4,
2,
1,
1,
0,
0,
3,
0,
3,
3,
0,
1,
1,
1,
0,
1,
0,
0,
2,
0,
2,
0,
1,
1,
1,
0,
0,
0,
0,
1,
1,
1,
0,
0,
0,
0,
0,
0,
0,
1,
0,
1,
0,
0,
0,
0,
0,
0,
0,
1,
0,
0,
0,
0,
0,
0,
1,
0,
0,
1,
0,
0,
0,
0,
1,
0,
1,
0,
0,
0,
0,
0,
0,
0,
0,
0,
0,
0,
0,
0,
0,
0,
0,
0,
0,
0,
0,
0,
0,
0,
0,
0,
0,
0,
0,
0,
0,
0,
0,
0,
0,
0,
0,
0,
0,
0,
0,
0,
0,
0,
0,
0,
0,
0,
0,
0,
0,
0,
0,
0,
0,
0,
0,
0,
0,
0,
0,
0,
0,
0,
0,
0,
0,
0,
0,
0,
0,
0,
0,
0,
0,
0,
#ENDOFDATA   :

File: SPI MM2 Scheelite[2][4].msa
#FORMAT      : EMSA/MAS Spectral Data File
#VERSION     : 1.0
#TITLE       : SPI MM2 Scheelite[2][all]
#DATE        : 13-MAR-2025
#TIME        : 12:14
#OWNER       : Unknown
#NPOINTS     : 4096
#NCOLUMNS    : 1
#XUNITS      : eV
#YUNITS      : counts
#DATATYPE    : Y
#XPERCHAN    : 9.99778
#OFFSET      : 1.69135
#BEAMKV      : 20
#SIGNALTYPE  : EDS
#ELEVANGLE   : 35
#AZIMANGLE   : 0
#LIVETIME    : 239.974
#REALTIME    : 263.083
#PROBECUR    : 1.02616
#TAUWIND     : 0
#TDEADLYR    : 0
#TACTLYR     : 0.045
#TALWIND     : 0.025
#CHOFFSET    : 0.0
#XLABEL      : Energy (eV)
#YLABEL      : Counts
#XPOSITION   : -2.80604
#YPOSITION   : 2.03725
#ZPOSITION   : 31.03511
#EDSDET      : SD
##SPECIMEN   : SPI MM2 Scheelite[2][all]
##DET_HASH   : 12273538-fd48-a23f-0a19-f1e6fa85caef
##CALIB_HASH : 6abaa72c-aa41-8738-0be9-f592914732f3
##WORKING    : 15.0 mm
##DET_NAME   : EDAX All
##DET_MODE   : MediumLE
#SPECTRUM    :
25,
519,
17718,
4783,
19858,
5163,
6260,
6675,
7523,
8762,
20970,
10010,
21262,
181177,
7395,
6047,
5500,
5652,
4705,
4727,
4998,
4741,
4967,
4893,
4926,
5302,
37539,
15233,
6180,
9492,
4436,
4313,
4311,
4170,
4058,
4190,
4024,
3909,
3800,
3885,
3745,
3666,
3447,
3320,
3234,
3349,
3537,
3121,
3074,
2908,
3015,
2899,
3053,
3978,
2708,
2586,
2617,
2490,
2452,
6883,
27769,
4345,
2441,
2191,
2099,
1926,
1949,
2060,
4050,
10930,
4740,
6259,
2673,
1786,
1514,
1435,
1403,
1306,
1382,
1342,
2050,
2119,
1326,
1471,
1242,
1051,
1109,
994,
909,
851,
920,
827,
818,
765,
739,
748,
729,
615,
666,
580,
585,
602,
527,
507,
491,
459,
440,
398,
382,
369,
325,
312,
331,
300,
287,
305,
257,
238,
230,
219,
204,
215,
183,
176,
142,
134,
128,
126,
94,
105,
110,
110,
86,
71,
52,
58,
47,
37,
35,
26,
24,
14,
11,
2,
9,
4,
4,
5,
3,
2,
3,
1,
3,
0,
3,
0,
1,
1,
5,
1,
2,
2,
2,
0,
2,
0,
0,
1,
2,
0,
3,
0,
0,
0,
1,
1,
0,
1,
0,
2,
1,
1,
0,
0,
2,
0,
0,
0,
0,
0,
1,
1,
0,
0,
0,
0,
0,
0,
1,
1,
0,
0,
0,
0,
0,
0,
0,
0,
0,
0,
0,
0,
0,
0,
0,
0,
1,
0,
0,
0,
0,
0,
0,
0,
0,
0,
0,
0,
0,
0,
0,
0,
0,
0,
0,
0,
0,
0,
0,
0,
0,
0,
0,
0,
0,
0,
0,
0,
0,
0,
0,
0,
0,
0,
0,
0,
0,
0,
0,
0,
0,
0,
0,
0,
0,
0,
0,
0,
0,
0,
0,
0,
0,
0,
0,
0,
0,
0,
0,
0,
0,
0,
0,
0,
0,
0,
0,
0,
0,
0,
0,
0,
0,
0,
#ENDOFDATA   :

File: SPI MM2 Scheelite[3][4].msa
#FORMAT      : EMSA/MAS Spectral Data File
#VERSION     : 1.0
#TITLE       : SPI MM2 Scheelite[3][all]
#DATE        : 13-MAR-2025
#TIME        : 12:15
#OWNER       : Unknown
#NPOINTS     : 4096
#NCOLUMNS    : 1
#XUNITS      : eV
#YUNITS      : counts
#DATATYPE    : Y
#XPERCHAN    : 9.99778
#OFFSET      : 1.69135
#BEAMKV      : 20
#SIGNALTYPE  : EDS
#ELEVANGLE   : 35
#AZIMANGLE   : 0
#LIVETIME    : 239.974
#REALTIME    : 263.081
#PROBECUR    : 1.02616
#TAUWIND     : 0
#TDEADLYR    : 0
#TACTLYR     : 0.045
#TALWIND     : 0.025
#CHOFFSET    : 0.0
#XLABEL      : Energy (eV)
#YLABEL      : Counts
#XPOSITION   : -2.80884
#YPOSITION   : 2.03971
#ZPOSITION   : 31.03511
#EDSDET      : SD
##SPECIMEN   : SPI MM2 Scheelite[3][all]
##DET_HASH   : 12273538-fd48-a23f-0a19-f1e6fa85caef
##CALIB_HASH : 6abaa72c-aa41-8738-0be9-f592914732f3
##WORKING    : 15.0 mm
##DET_NAME   : EDAX All
##DET_MODE   : MediumLE
#SPECTRUM    :
34,
542,
17694,
4717,
20291,
4996,
6145,
6821,
7718,
8732,
21072,
9842,
21564,
180528,
7148,
6099,
5513,
5558,
4800,
4712,
4887,
4708,
4845,
4846,
4795,
5207,
37302,
15054,
6255,
9402,
4352,
4269,
4162,
4129,
4102,
3944,
3973,
3863,
3819,
3998,
3622,
3671,
3426,
3372,
3321,
3387,
3468,
3154,
3035,
3061,
2937,
2814,
3117,
3979,
2804,
2640,
2497,
2432,
2505,
6769,
27365,
4284,
2453,
2153,
2109,
2047,
1917,
2009,
3932,
10818,
4766,
6367,
2708,
1829,
1508,
1402,
1372,
1375,
1361,
1288,
2074,
2127,
1377,
1536,
1177,
1045,
1083,
963,
893,
890,
824,
807,
819,
755,
777,
716,
665,
656,
644,
604,
573,
540,
565,
539,
505,
449,
476,
444,
400,
378,
349,
358,
342,
363,
299,
283,
266,
273,
216,
221,
197,
166,
186,
155,
155,
134,
136,
116,
123,
92,
86,
84,
80,
83,
78,
41,
35,
43,
27,
30,
22,
16,
8,
3,
4,
5,
1,
9,
2,
5,
1,
0,
3,
2,
0,
4,
1,
1,
1,
0,
2,
2,
3,
1,
2,
0,
3,
0,
1,
0,
0,
3,
0,
0,
0,
1,
1,
0,
0,
1,
1,
0,
1,
0,
3,
0,
0,
0,
2,
0,
1,
0,
1,
0,
0,
0,
0,
1,
0,
1,
0,
0,
0,
0,
0,
0,
0,
0,
1,
0,
0,
1,
0,
0,
1,
0,
0,
0,
0,
0,
0,
0,
0,
0,
0,
0,
0,
0,
0,
0,
0,
0,
0,
0,
0,
0,
0,
0,
0,
0,
0,
0,
0,
0,
0,
0,
0,
0,
0,
0,
0,
0,
0,
0,
0,
0,
0,
0,
0,
0,
0,
0,
0,
0,
0,
0,
0,
0,
0,
0,
0,
0,
0,
0,
0,
0,
0,
0,
0,
0,
0,
0,
0,
0,
0,
0,
0,
0,
0,
0,
0,
0,
0,
0,
#ENDOFDATA   :