Folder: spex_quant/N132962/Quantification/20 keV/MMM2 (part 10)

File: SPI MM2 SPI Obsidian[3][4].msa
#FORMAT      : EMSA/MAS Spectral Data File
#VERSION     : 1.0
#TITLE       : SPI MM2 SPI Obsidian[3][all]
#DATE        : 13-MAR-2025
#TIME        : 09:58
#OWNER       : Unknown
#NPOINTS     : 4096
#NCOLUMNS    : 1
#XUNITS      : eV
#YUNITS      : counts
#DATATYPE    : Y
#XPERCHAN    : 9.99778
#OFFSET      : 1.69135
#BEAMKV      : 20
#SIGNALTYPE  : EDS
#ELEVANGLE   : 35
#AZIMANGLE   : 0
#LIVETIME    : 239.865
#REALTIME    : 256.298
#PROBECUR    : 1.02627
#TAUWIND     : 0
#TDEADLYR    : 0
#TACTLYR     : 0.045
#TALWIND     : 0.025
#CHOFFSET    : 0.0
#XLABEL      : Energy (eV)
#YLABEL      : Counts
#XPOSITION   : 0.00236
#YPOSITION   : -3.00336
#ZPOSITION   : 31.03509
#EDSDET      : SD
##SPECIMEN   : SPI MM2 SPI Obsidian[3][all]
##D2STDCMP   : SPI Obsidian,(O:49.01),(Na:2.77),(Mg:0.06),(Al:6.9),(Si:35.66),(K:3.58),(Ca:0.63),(Ti:0.06),(Mn:0.04),(Fe:0.59),5.0
##DET_HASH   : 12273538-fd48-a23f-0a19-f1e6fa85caef
##CALIB_HASH : 6abaa72c-aa41-8738-0be9-f592914732f3
##WORKING    : 15.0 mm
##DET_NAME   : EDAX All
##DET_MODE   : MediumLE
#SPECTRUM    :
23,
178,
8733,
5570,
57755,
2639,
2687,
6436,
4272,
4646,
8179,
24723,
88852,
40582,
2246,
2244,
3059,
2212,
2239,
2318,
2253,
2149,
2073,
4163,
12085,
2787,
4286,
2191,
1763,
1852,
1510,
1533,
1808,
1441,
1369,
1406,
1304,
1309,
1172,
1223,
1091,
1133,
1121,
993,
919,
1280,
1799,
885,
847,
821,
926,
827,
772,
692,
692,
647,
673,
616,
565,
605,
525,
539,
506,
465,
470,
449,
436,
466,
481,
390,
395,
381,
352,
392,
301,
326,
341,
305,
297,
299,
313,
283,
248,
231,
226,
232,
190,
193,
194,
182,
160,
203,
160,
153,
142,
122,
144,
122,
126,
134,
101,
91,
102,
87,
81,
98,
73,
78,
68,
66,
52,
63,
47,
54,
58,
36,
41,
31,
40,
40,
26,
26,
24,
24,
24,
21,
19,
19,
16,
12,
16,
12,
11,
8,
8,
4,
8,
5,
5,
2,
4,
0,
0,
0,
0,
1,
1,
0,
0,
0,
0,
1,
0,
0,
0,
0,
0,
0,
1,
0,
0,
0,
0,
0,
0,
0,
0,
0,
0,
0,
0,
0,
0,
0,
0,
0,
0,
0,
0,
0,
0,
0,
0,
0,
0,
0,
0,
0,
0,
0,
0,
0,
0,
0,
0,
0,
0,
0,
0,
0,
0,
0,
0,
0,
0,
0,
0,
0,
0,
0,
0,
0,
0,
0,
0,
0,
0,
0,
0,
0,
0,
0,
0,
0,
0,
0,
0,
0,
0,
0,
0,
0,
0,
0,
0,
0,
0,
0,
0,
0,
0,
0,
0,
0,
0,
0,
0,
0,
0,
0,
0,
0,
0,
0,
0,
0,
0,
0,
0,
0,
0,
0,
0,
0,
0,
0,
0,
0,
0,
0,
0,
0,
0,
0,
0,
0,
0,
0,
0,
0,
0,
0,
0,
0,
0,
0,
0,
0,
0,
0,
0,
0,
0,
0,
#ENDOFDATA   :

File: SPI MM2 SPI Obsidian[4][4].msa
#FORMAT      : EMSA/MAS Spectral Data File
#VERSION     : 1.0
#TITLE       : SPI MM2 SPI Obsidian[4][all]
#DATE        : 13-MAR-2025
#TIME        : 09:59
#OWNER       : Unknown
#NPOINTS     : 4096
#NCOLUMNS    : 1
#XUNITS      : eV
#YUNITS      : counts
#DATATYPE    : Y
#XPERCHAN    : 9.99778
#OFFSET      : 1.69135
#BEAMKV      : 20
#SIGNALTYPE  : EDS
#ELEVANGLE   : 35
#AZIMANGLE   : 0
#LIVETIME    : 239.863
#REALTIME    : 256.299
#PROBECUR    : 1.02627
#TAUWIND     : 0
#TDEADLYR    : 0
#TACTLYR     : 0.045
#TALWIND     : 0.025
#CHOFFSET    : 0.0
#XLABEL      : Energy (eV)
#YLABEL      : Counts
#XPOSITION   : 0.05713
#YPOSITION   : -3.01833
#ZPOSITION   : 31.03509
#EDSDET      : SD
##SPECIMEN   : SPI MM2 SPI Obsidian[4][all]
##D2STDCMP   : SPI Obsidian,(O:49.01),(Na:2.77),(Mg:0.06),(Al:6.9),(Si:35.66),(K:3.58),(Ca:0.63),(Ti:0.06),(Mn:0.04),(Fe:0.59),5.0
##DET_HASH   : 12273538-fd48-a23f-0a19-f1e6fa85caef
##CALIB_HASH : 6abaa72c-aa41-8738-0be9-f592914732f3
##WORKING    : 15.0 mm
##DET_NAME   : EDAX All
##DET_MODE   : MediumLE
#SPECTRUM    :
30,
198,
8563,
5650,
57853,
2658,
2725,
6462,
4172,
4644,
8080,
25086,
88279,
40965,
2285,
2111,
2870,
2274,
2223,
2268,
2149,
2151,
2115,
4223,
12126,
2831,
4344,
2133,
1703,
1857,
1600,
1487,
1832,
1372,
1435,
1390,
1365,
1278,
1176,
1163,
1103,
1082,
1094,
1054,
1038,
1242,
1856,
894,
813,
852,
856,
839,
686,
778,
705,
679,
647,
619,
623,
571,
528,
545,
509,
522,
479,
434,
441,
429,
419,
407,
373,
367,
379,
356,
355,
313,
307,
317,
297,
296,
254,
240,
235,
225,
230,
217,
206,
184,
206,
178,
186,
153,
168,
149,
141,
138,
125,
135,
130,
133,
110,
95,
101,
89,
67,
87,
67,
81,
81,
69,
53,
71,
48,
53,
44,
38,
46,
30,
41,
34,
33,
25,
28,
22,
13,
16,
21,
12,
6,
21,
16,
7,
5,
7,
9,
8,
4,
5,
6,
3,
2,
0,
1,
0,
0,
1,
0,
0,
0,
0,
0,
1,
0,
0,
0,
1,
0,
0,
0,
0,
0,
0,
0,
0,
0,
0,
0,
0,
0,
0,
0,
0,
0,
0,
0,
0,
0,
0,
0,
0,
0,
0,
0,
0,
0,
0,
0,
0,
0,
0,
0,
0,
0,
0,
0,
0,
0,
0,
0,
0,
0,
0,
0,
0,
0,
0,
0,
0,
0,
0,
0,
0,
0,
0,
0,
0,
0,
0,
0,
0,
0,
0,
0,
0,
0,
0,
0,
0,
0,
0,
0,
0,
0,
0,
0,
0,
0,
0,
0,
0,
0,
0,
0,
0,
0,
0,
0,
0,
0,
0,
0,
0,
0,
0,
0,
0,
0,
0,
0,
0,
0,
0,
0,
0,
0,
0,
0,
0,
0,
0,
0,
0,
0,
0,
0,
0,
0,
0,
0,
0,
0,
0,
0,
0,
0,
0,
0,
0,
0,
0,
0,
0,
0,
0,
#ENDOFDATA   :

File: SPI MM2 SPI Obsidian[5][4].msa
#FORMAT      : EMSA/MAS Spectral Data File
#VERSION     : 1.0
#TITLE       : SPI MM2 SPI Obsidian[5][all]
#DATE        : 13-MAR-2025
#TIME        : 10:00
#OWNER       : Unknown
#NPOINTS     : 4096
#NCOLUMNS    : 1
#XUNITS      : eV
#YUNITS      : counts
#DATATYPE    : Y
#XPERCHAN    : 9.99778
#OFFSET      : 1.69135
#BEAMKV      : 20
#SIGNALTYPE  : EDS
#ELEVANGLE   : 35
#AZIMANGLE   : 0
#LIVETIME    : 239.853
#REALTIME    : 256.297
#PROBECUR    : 1.02627
#TAUWIND     : 0
#TDEADLYR    : 0
#TACTLYR     : 0.045
#TALWIND     : 0.025
#CHOFFSET    : 0.0
#XLABEL      : Energy (eV)
#YLABEL      : Counts
#XPOSITION   : 0.00762
#YPOSITION   : -3.00123
#ZPOSITION   : 31.03509
#EDSDET      : SD
##SPECIMEN   : SPI MM2 SPI Obsidian[5][all]
##D2STDCMP   : SPI Obsidian,(O:49.01),(Na:2.77),(Mg:0.06),(Al:6.9),(Si:35.66),(K:3.58),(Ca:0.63),(Ti:0.06),(Mn:0.04),(Fe:0.59),5.0
##DET_HASH   : 12273538-fd48-a23f-0a19-f1e6fa85caef
##CALIB_HASH : 6abaa72c-aa41-8738-0be9-f592914732f3
##WORKING    : 15.0 mm
##DET_NAME   : EDAX All
##DET_MODE   : MediumLE
#SPECTRUM    :
21,
181,
8566,
5723,
57177,
2594,
2751,
6473,
4198,
4481,
8049,
25135,
88556,
40928,
2230,
2152,
2914,
2266,
2208,
2310,
2334,
2229,
2095,
4241,
11993,
2889,
4403,
2267,
1760,
1889,
1525,
1500,
1796,
1446,
1415,
1366,
1368,
1198,
1181,
1184,
1026,
1070,
1131,
1070,
960,
1286,
1865,
915,
844,
837,
878,
852,
777,
738,
723,
651,
665,
586,
614,
590,
543,
548,
560,
528,
510,
446,
480,
449,
386,
438,
364,
362,
369,
363,
395,
361,
356,
308,
305,
276,
276,
267,
265,
231,
251,
209,
216,
175,
200,
206,
188,
169,
161,
166,
158,
129,
136,
128,
99,
124,
122,
93,
105,
93,
70,
89,
83,
74,
95,
70,
51,
59,
64,
48,
58,
40,
31,
34,
34,
32,
31,
34,
29,
24,
27,
20,
25,
13,
15,
19,
7,
7,
14,
13,
7,
6,
5,
3,
3,
7,
3,
0,
0,
0,
0,
0,
0,
0,
0,
1,
0,
0,
0,
1,
0,
0,
0,
0,
0,
0,
0,
0,
0,
0,
0,
0,
0,
0,
0,
0,
0,
0,
0,
0,
0,
0,
0,
0,
0,
0,
0,
0,
0,
0,
0,
0,
0,
0,
0,
0,
0,
0,
0,
0,
0,
0,
0,
0,
0,
0,
0,
0,
0,
0,
0,
0,
0,
0,
0,
0,
0,
0,
0,
0,
0,
0,
0,
0,
0,
0,
0,
0,
0,
0,
0,
0,
0,
0,
0,
0,
0,
0,
0,
0,
0,
0,
0,
0,
0,
0,
0,
0,
0,
0,
0,
0,
0,
0,
0,
0,
0,
0,
0,
0,
0,
0,
0,
0,
0,
0,
0,
0,
0,
0,
0,
0,
0,
0,
0,
0,
0,
0,
0,
0,
0,
0,
0,
0,
0,
0,
0,
0,
0,
0,
0,
0,
0,
0,
0,
0,
0,
0,
0,
0,
#ENDOFDATA   :

File: SPI MM2 SPI Obsidian[6][4].msa
#FORMAT      : EMSA/MAS Spectral Data File
#VERSION     : 1.0
#TITLE       : SPI MM2 SPI Obsidian[6][all]
#DATE        : 13-MAR-2025
#TIME        : 10:01
#OWNER       : Unknown
#NPOINTS     : 4096
#NCOLUMNS    : 1
#XUNITS      : eV
#YUNITS      : counts
#DATATYPE    : Y
#XPERCHAN    : 9.99778
#OFFSET      : 1.69135
#BEAMKV      : 20
#SIGNALTYPE  : EDS
#ELEVANGLE   : 35
#AZIMANGLE   : 0
#LIVETIME    : 239.906
#REALTIME    : 256.361
#PROBECUR    : 1.02627
#TAUWIND     : 0
#TDEADLYR    : 0
#TACTLYR     : 0.045
#TALWIND     : 0.025
#CHOFFSET    : 0.0
#XLABEL      : Energy (eV)
#YLABEL      : Counts
#XPOSITION   : 0.02671
#YPOSITION   : -3.01571
#ZPOSITION   : 31.03509
#EDSDET      : SD
##SPECIMEN   : SPI MM2 SPI Obsidian[6][all]
##D2STDCMP   : SPI Obsidian,(O:49.01),(Na:2.77),(Mg:0.06),(Al:6.9),(Si:35.66),(K:3.58),(Ca:0.63),(Ti:0.06),(Mn:0.04),(Fe:0.59),5.0
##DET_HASH   : 12273538-fd48-a23f-0a19-f1e6fa85caef
##CALIB_HASH : 6abaa72c-aa41-8738-0be9-f592914732f3
##WORKING    : 15.0 mm
##DET_NAME   : EDAX All
##DET_MODE   : MediumLE
#SPECTRUM    :
23,
170,
8499,
5640,
57405,
2677,
2673,
6570,
4328,
4523,
8313,
25013,
88644,
41060,
2172,
2204,
2973,
2236,
2255,
2177,
2270,
2148,
2024,
4214,
12150,
2831,
4249,
2232,
1689,
1887,
1570,
1460,
1712,
1500,
1421,
1399,
1433,
1269,
1237,
1143,
1124,
1127,
1105,
1057,
940,
1191,
1759,
843,
892,
806,
917,
785,
743,
724,
684,
642,
612,
594,
610,
618,
609,
544,
515,
496,
498,
483,
477,
417,
425,
395,
403,
396,
367,
372,
335,
365,
329,
301,
318,
311,
292,
293,
253,
225,
263,
225,
242,
206,
173,
210,
190,
189,
158,
169,
148,
141,
134,
127,
116,
112,
105,
92,
103,
97,
83,
99,
71,
71,
53,
62,
63,
49,
54,
55,
45,
34,
38,
32,
30,
27,
25,
30,
25,
26,
29,
24,
24,
26,
11,
25,
10,
14,
11,
8,
8,
5,
13,
2,
1,
4,
1,
5,
0,
0,
0,
0,
0,
0,
0,
0,
0,
0,
1,
0,
0,
0,
1,
0,
0,
0,
0,
0,
0,
0,
0,
0,
0,
0,
0,
0,
0,
0,
0,
0,
0,
0,
0,
0,
0,
0,
0,
0,
0,
0,
0,
0,
0,
0,
0,
0,
0,
0,
0,
0,
0,
0,
0,
0,
0,
0,
0,
0,
0,
0,
0,
0,
0,
0,
0,
0,
0,
0,
0,
0,
0,
0,
0,
0,
0,
0,
0,
0,
0,
0,
0,
0,
0,
0,
0,
0,
0,
0,
0,
0,
0,
0,
0,
0,
0,
0,
0,
0,
0,
0,
0,
0,
0,
0,
0,
0,
0,
0,
0,
0,
0,
0,
0,
0,
0,
0,
0,
0,
0,
0,
0,
0,
0,
0,
0,
0,
0,
0,
0,
0,
0,
0,
0,
0,
0,
0,
0,
0,
0,
0,
0,
0,
0,
0,
0,
0,
0,
0,
0,
0,
#ENDOFDATA   :

File: SPI MM2 SPI Obsidian[7][4].msa
#FORMAT      : EMSA/MAS Spectral Data File
#VERSION     : 1.0
#TITLE       : SPI MM2 SPI Obsidian[7][all]
#DATE        : 13-MAR-2025
#TIME        : 10:02
#OWNER       : Unknown
#NPOINTS     : 4096
#NCOLUMNS    : 1
#XUNITS      : eV
#YUNITS      : counts
#DATATYPE    : Y
#XPERCHAN    : 9.99778
#OFFSET      : 1.69135
#BEAMKV      : 20
#SIGNALTYPE  : EDS
#ELEVANGLE   : 35
#AZIMANGLE   : 0
#LIVETIME    : 239.86
#REALTIME    : 256.308
#PROBECUR    : 1.02627
#TAUWIND     : 0
#TDEADLYR    : 0
#TACTLYR     : 0.045
#TALWIND     : 0.025
#CHOFFSET    : 0.0
#XLABEL      : Energy (eV)
#YLABEL      : Counts
#XPOSITION   : -0.0059
#YPOSITION   : -2.98673
#ZPOSITION   : 31.03509
#EDSDET      : SD
##SPECIMEN   : SPI MM2 SPI Obsidian[7][all]
##D2STDCMP   : SPI Obsidian,(O:49.01),(Na:2.77),(Mg:0.06),(Al:6.9),(Si:35.66),(K:3.58),(Ca:0.63),(Ti:0.06),(Mn:0.04),(Fe:0.59),5.0
##DET_HASH   : 12273538-fd48-a23f-0a19-f1e6fa85caef
##CALIB_HASH : 6abaa72c-aa41-8738-0be9-f592914732f3
##WORKING    : 15.0 mm
##DET_NAME   : EDAX All
##DET_MODE   : MediumLE
#SPECTRUM    :
27,
195,
8608,
5714,
57588,
2585,
2634,
6606,
4274,
4517,
7961,
25223,
87525,
40766,
2282,
2143,
2966,
2244,
2254,
2173,
2254,
2094,
2163,
4153,
12092,
2753,
4380,
2155,
1755,
1805,
1528,
1596,
1814,
1471,
1443,
1369,
1386,
1288,
1210,
1248,
1146,
1061,
1093,
966,
1012,
1235,
1792,
869,
856,
806,
918,
821,
707,
763,
653,
635,
658,
609,
605,
590,
599,
563,
521,
534,
473,
451,
461,
460,
433,
418,
366,
393,
383,
361,
342,
320,
343,
339,
295,
291,
320,
246,
241,
244,
225,
223,
199,
194,
172,
168,
180,
192,
171,
161,
131,
148,
133,
126,
102,
89,
105,
113,
90,
99,
89,
85,
83,
74,
62,
50,
62,
54,
46,
58,
56,
46,
39,
31,
40,
29,
32,
23,
25,
21,
26,
23,
21,
14,
18,
16,
11,
11,
9,
8,
14,
6,
6,
5,
9,
6,
2,
1,
2,
0,
0,
1,
0,
0,
0,
0,
0,
0,
0,
0,
0,
0,
1,
0,
1,
1,
0,
0,
0,
0,
0,
0,
0,
0,
0,
0,
0,
0,
0,
0,
0,
0,
0,
0,
0,
0,
0,
0,
0,
0,
0,
0,
0,
0,
0,
0,
0,
0,
0,
0,
0,
0,
0,
0,
0,
0,
0,
0,
0,
0,
1,
0,
0,
0,
0,
0,
0,
0,
0,
0,
0,
0,
0,
0,
0,
0,
0,
0,
0,
0,
0,
0,
0,
0,
0,
0,
0,
0,
0,
0,
0,
0,
0,
0,
0,
0,
0,
0,
0,
0,
0,
0,
0,
0,
0,
0,
0,
0,
0,
0,
0,
0,
0,
0,
0,
0,
0,
0,
0,
0,
0,
0,
0,
0,
0,
0,
0,
0,
0,
0,
0,
0,
0,
0,
0,
0,
0,
0,
0,
0,
0,
0,
0,
0,
0,
0,
0,
0,
0,
0,
#ENDOFDATA   :

File: SPI MM2 SPI Olivine[0][4].msa
#FORMAT      : EMSA/MAS Spectral Data File
#VERSION     : 1.0
#TITLE       : SPI MM2 SPI Olivine[0][all]
#DATE        : 13-MAR-2025
#TIME        : 09:45
#OWNER       : Unknown
#NPOINTS     : 4096
#NCOLUMNS    : 1
#XUNITS      : eV
#YUNITS      : counts
#DATATYPE    : Y
#XPERCHAN    : 9.99778
#OFFSET      : 1.69135
#BEAMKV      : 20
#SIGNALTYPE  : EDS
#ELEVANGLE   : 35
#AZIMANGLE   : 0
#LIVETIME    : 239.674
#REALTIME    : 255.782
#PROBECUR    : 1.02582
#TAUWIND     : 0
#TDEADLYR    : 0
#TACTLYR     : 0.045
#TALWIND     : 0.025
#CHOFFSET    : 0.0
#XLABEL      : Energy (eV)
#YLABEL      : Counts
#XPOSITION   : -3.18127
#YPOSITION   : -2.1151
#ZPOSITION   : 31.03509
#EDSDET      : SD
##SPECIMEN   : SPI MM2 SPI Olivine[0][all]
##D2STDCMP   : SPI Olivine,(O:43.96),(Mg:30.26),(Si:19.14),(Mn:0.089),(Fe:6.35),(Ni:0.278),5.0
##DET_HASH   : 12273538-fd48-a23f-0a19-f1e6fa85caef
##CALIB_HASH : 6abaa72c-aa41-8738-0be9-f592914732f3
##WORKING    : 15.0 mm
##DET_NAME   : EDAX All
##DET_MODE   : MediumLE
#SPECTRUM    :
28,
184,
8473,
6573,
68050,
7369,
3293,
3586,
5722,
239530,
2797,
3281,
39616,
19245,
2132,
2321,
2793,
2299,
2704,
2309,
2245,
2404,
2246,
2082,
2072,
2017,
1956,
1733,
1758,
1788,
1619,
1653,
1593,
1541,
1397,
1377,
1337,
1327,
1272,
1260,
1186,
1150,
1303,
1049,
1034,
3643,
9358,
1031,
944,
932,
1857,
1275,
809,
1023,
803,
697,
660,
622,
653,
717,
600,
586,
558,
521,
463,
495,
436,
461,
467,
440,
416,
368,
391,
357,
320,
310,
322,
311,
289,
264,
300,
271,
271,
257,
224,
206,
229,
242,
215,
180,
179,
164,
171,
159,
162,
116,
132,
133,
114,
115,
82,
121,
103,
97,
85,
80,
73,
69,
72,
60,
56,
56,
57,
45,
49,
55,
50,
49,
46,
39,
30,
33,
20,
28,
32,
17,
33,
16,
8,
15,
16,
10,
10,
8,
6,
7,
3,
4,
4,
4,
5,
1,
1,
0,
0,
0,
0,
0,
0,
0,
0,
0,
0,
0,
1,
0,
0,
0,
0,
0,
0,
0,
0,
0,
0,
0,
0,
0,
0,
0,
0,
0,
0,
0,
0,
0,
0,
0,
0,
0,
0,
0,
0,
0,
0,
0,
0,
0,
0,
0,
0,
0,
0,
0,
0,
0,
0,
0,
0,
0,
0,
0,
0,
0,
0,
0,
0,
0,
0,
0,
0,
0,
0,
0,
0,
0,
0,
0,
0,
0,
0,
0,
0,
0,
0,
0,
0,
0,
0,
0,
0,
0,
0,
0,
0,
0,
0,
0,
0,
0,
0,
0,
0,
0,
0,
0,
0,
0,
0,
0,
0,
0,
0,
0,
0,
0,
0,
0,
0,
0,
0,
0,
0,
0,
0,
0,
0,
0,
0,
0,
0,
0,
0,
0,
0,
0,
0,
0,
0,
0,
0,
0,
0,
0,
0,
0,
0,
0,
0,
0,
0,
0,
0,
0,
#ENDOFDATA   :

File: SPI MM2 SPI Olivine[1][4].msa
#FORMAT      : EMSA/MAS Spectral Data File
#VERSION     : 1.0
#TITLE       : SPI MM2 SPI Olivine[1][all]
#DATE        : 13-MAR-2025
#TIME        : 09:46
#OWNER       : Unknown
#NPOINTS     : 4096
#NCOLUMNS    : 1
#XUNITS      : eV
#YUNITS      : counts
#DATATYPE    : Y
#XPERCHAN    : 9.99778
#OFFSET      : 1.69135
#BEAMKV      : 20
#SIGNALTYPE  : EDS
#ELEVANGLE   : 35
#AZIMANGLE   : 0
#LIVETIME    : 239.785
#REALTIME    : 255.9137
#PROBECUR    : 1.02582
#TAUWIND     : 0
#TDEADLYR    : 0
#TACTLYR     : 0.045
#TALWIND     : 0.025
#CHOFFSET    : 0.0
#XLABEL      : Energy (eV)
#YLABEL      : Counts
#XPOSITION   : -3.17548
#YPOSITION   : -2.14784
#ZPOSITION   : 31.03509
#EDSDET      : SD
##SPECIMEN   : SPI MM2 SPI Olivine[1][all]
##D2STDCMP   : SPI Olivine,(O:43.96),(Mg:30.26),(Si:19.14),(Mn:0.089),(Fe:6.35),(Ni:0.278),5.0
##DET_HASH   : 12273538-fd48-a23f-0a19-f1e6fa85caef
##CALIB_HASH : 6abaa72c-aa41-8738-0be9-f592914732f3
##WORKING    : 15.0 mm
##DET_NAME   : EDAX All
##DET_MODE   : MediumLE
#SPECTRUM    :
22,
186,
8442,
6501,
68220,
7248,
3325,
3557,
5694,
239432,
2810,
3346,
39602,
19243,
2242,
2303,
2602,
2354,
2623,
2315,
2229,
2360,
2244,
2095,
2058,
2136,
1951,
1815,
1821,
1788,
1663,
1630,
1547,
1547,
1470,
1311,
1331,
1259,
1225,
1245,
1192,
1125,
1245,
1118,
1070,
3640,
9251,
1024,
839,
897,
1863,
1314,
743,
1051,
808,
737,
641,
628,
583,
663,
600,
531,
538,
489,
537,
466,
462,
448,
445,
423,
400,
371,
401,
351,
332,
337,
360,
326,
317,
279,
288,
262,
236,
258,
225,
238,
212,
190,
179,
201,
172,
185,
152,
155,
152,
152,
113,
141,
118,
127,
90,
95,
104,
92,
92,
92,
108,
70,
60,
68,
68,
57,
63,
55,
47,
51,
46,
35,
34,
25,
41,
31,
28,
21,
33,
29,
25,
16,
20,
12,
20,
14,
12,
14,
7,
7,
9,
3,
4,
6,
1,
1,
1,
0,
0,
1,
0,
1,
0,
0,
0,
0,
0,
0,
0,
0,
0,
0,
0,
0,
0,
0,
0,
0,
0,
0,
0,
0,
0,
1,
0,
0,
0,
0,
0,
0,
0,
0,
0,
0,
0,
0,
0,
0,
0,
0,
0,
0,
0,
0,
0,
0,
0,
0,
0,
0,
0,
0,
0,
0,
0,
0,
0,
0,
0,
0,
1,
0,
0,
0,
0,
0,
0,
0,
0,
0,
0,
0,
0,
0,
0,
0,
0,
0,
0,
0,
0,
0,
0,
0,
0,
0,
0,
0,
0,
0,
0,
0,
0,
0,
0,
0,
0,
0,
0,
0,
0,
0,
0,
0,
0,
0,
0,
0,
0,
0,
0,
0,
0,
0,
0,
0,
0,
0,
0,
0,
0,
0,
0,
0,
0,
0,
0,
0,
0,
0,
0,
0,
0,
0,
0,
0,
0,
0,
0,
0,
0,
0,
0,
0,
0,
0,
0,
0,
#ENDOFDATA   :

File: SPI MM2 SPI Olivine[2][4].msa
#FORMAT      : EMSA/MAS Spectral Data File
#VERSION     : 1.0
#TITLE       : SPI MM2 SPI Olivine[2][all]
#DATE        : 13-MAR-2025
#TIME        : 09:47
#OWNER       : Unknown
#NPOINTS     : 4096
#NCOLUMNS    : 1
#XUNITS      : eV
#YUNITS      : counts
#DATATYPE    : Y
#XPERCHAN    : 9.99778
#OFFSET      : 1.69135
#BEAMKV      : 20
#SIGNALTYPE  : EDS
#ELEVANGLE   : 35
#AZIMANGLE   : 0
#LIVETIME    : 239.72
#REALTIME    : 255.85
#PROBECUR    : 1.02582
#TAUWIND     : 0
#TDEADLYR    : 0
#TACTLYR     : 0.045
#TALWIND     : 0.025
#CHOFFSET    : 0.0
#XLABEL      : Energy (eV)
#YLABEL      : Counts
#XPOSITION   : -3.16692
#YPOSITION   : -2.12294
#ZPOSITION   : 31.03509
#EDSDET      : SD
##SPECIMEN   : SPI MM2 SPI Olivine[2][all]
##D2STDCMP   : SPI Olivine,(O:43.96),(Mg:30.26),(Si:19.14),(Mn:0.089),(Fe:6.35),(Ni:0.278),5.0
##DET_HASH   : 12273538-fd48-a23f-0a19-f1e6fa85caef
##CALIB_HASH : 6abaa72c-aa41-8738-0be9-f592914732f3
##WORKING    : 15.0 mm
##DET_NAME   : EDAX All
##DET_MODE   : MediumLE
#SPECTRUM    :
17,
178,
8643,
6556,
68775,
7237,
3278,
3544,
5853,
239480,
2783,
3275,
39630,
19407,
2241,
2214,
2649,
2278,
2725,
2352,
2291,
2392,
2291,
2003,
1954,
2073,
1840,
1757,
1703,
1698,
1680,
1532,
1554,
1593,
1497,
1465,
1324,
1257,
1225,
1245,
1173,
1148,
1317,
1071,
1086,
3710,
9468,
1028,
918,
953,
1853,
1294,
744,
1032,
880,
706,
660,
657,
647,
700,
620,
554,
540,
522,
490,
473,
475,
478,
455,
421,
381,
413,
402,
367,
351,
344,
324,
350,
305,
273,
270,
285,
270,
257,
243,
219,
231,
189,
217,
194,
201,
183,
168,
159,
153,
133,
142,
135,
123,
105,
103,
107,
105,
77,
86,
74,
79,
74,
78,
64,
72,
68,
46,
42,
47,
50,
44,
42,
37,
39,
30,
27,
30,
36,
37,
20,
15,
12,
19,
20,
13,
15,
10,
8,
6,
4,
1,
4,
0,
2,
3,
2,
1,
2,
0,
1,
0,
0,
0,
0,
0,
0,
0,
0,
0,
0,
0,
0,
0,
0,
0,
0,
0,
0,
0,
0,
0,
0,
0,
0,
0,
0,
0,
0,
0,
0,
0,
0,
0,
0,
0,
0,
0,
0,
0,
0,
0,
0,
0,
0,
0,
0,
0,
0,
0,
0,
0,
0,
0,
0,
0,
0,
0,
0,
0,
0,
0,
0,
0,
0,
0,
0,
0,
0,
0,
0,
0,
0,
0,
0,
0,
0,
0,
0,
0,
0,
0,
0,
0,
0,
0,
0,
0,
0,
0,
0,
0,
0,
0,
0,
0,
0,
0,
0,
0,
0,
0,
0,
0,
0,
0,
0,
0,
0,
0,
0,
0,
0,
0,
0,
0,
0,
0,
0,
0,
0,
0,
0,
0,
0,
0,
0,
0,
0,
0,
0,
0,
0,
0,
0,
0,
0,
0,
0,
0,
0,
0,
0,
0,
0,
0,
0,
0,
0,
#ENDOFDATA   :

File: SPI MM2 SPI Olivine[3][4].msa
#FORMAT      : EMSA/MAS Spectral Data File
#VERSION     : 1.0
#TITLE       : SPI MM2 SPI Olivine[3][all]
#DATE        : 13-MAR-2025
#TIME        : 09:49
#OWNER       : Unknown
#NPOINTS     : 4096
#NCOLUMNS    : 1
#XUNITS      : eV
#YUNITS      : counts
#DATATYPE    : Y
#XPERCHAN    : 9.99778
#OFFSET      : 1.69135
#BEAMKV      : 20
#SIGNALTYPE  : EDS
#ELEVANGLE   : 35
#AZIMANGLE   : 0
#LIVETIME    : 239.519
#REALTIME    : 255.605
#PROBECUR    : 1.02627
#TAUWIND     : 0
#TDEADLYR    : 0
#TACTLYR     : 0.045
#TALWIND     : 0.025
#CHOFFSET    : 0.0
#XLABEL      : Energy (eV)
#YLABEL      : Counts
#XPOSITION   : -3.18523
#YPOSITION   : -2.0859
#ZPOSITION   : 31.0351
#EDSDET      : SD
##SPECIMEN   : SPI MM2 SPI Olivine[3][all]
##D2STDCMP   : SPI Olivine,(O:43.96),(Mg:30.26),(Si:19.14),(Mn:0.089),(Fe:6.35),(Ni:0.278),5.0
##DET_HASH   : 12273538-fd48-a23f-0a19-f1e6fa85caef
##CALIB_HASH : 6abaa72c-aa41-8738-0be9-f592914732f3
##WORKING    : 15.0 mm
##DET_NAME   : EDAX All
##DET_MODE   : MediumLE
#SPECTRUM    :
31,
211,
8591,
6679,
67619,
7315,
3177,
3444,
5621,
238659,
2829,
3158,
39367,
19429,
2152,
2230,
2651,
2378,
2629,
2265,
2282,
2392,
2225,
2066,
2050,
1981,
1862,
1889,
1709,
1771,
1650,
1520,
1556,
1531,
1410,
1424,
1311,
1315,
1214,
1270,
1148,
1166,
1264,
1072,
1060,
3662,
9526,
1013,
898,
893,
1906,
1225,
752,
992,
861,
664,
663,
657,
664,
642,
594,
509,
511,
505,
504,
495,
456,
446,
450,
444,
381,
409,
379,
349,
361,
322,
343,
320,
287,
290,
279,
286,
251,
244,
253,
209,
228,
202,
217,
179,
147,
155,
185,
165,
151,
118,
146,
126,
123,
128,
100,
96,
96,
112,
83,
77,
80,
61,
65,
79,
60,
53,
62,
58,
56,
46,
33,
31,
39,
35,
19,
29,
23,
19,
29,
18,
11,
20,
15,
15,
16,
13,
7,
4,
8,
2,
9,
5,
6,
5,
4,
2,
1,
2,
0,
0,
0,
1,
0,
0,
0,
0,
0,
0,
0,
0,
0,
0,
0,
0,
0,
0,
0,
0,
0,
0,
0,
0,
0,
0,
0,
0,
0,
0,
0,
0,
0,
0,
0,
0,
0,
0,
0,
0,
0,
0,
0,
0,
0,
0,
0,
0,
0,
0,
0,
0,
0,
0,
0,
0,
0,
0,
0,
0,
0,
0,
0,
0,
0,
0,
0,
0,
0,
0,
0,
0,
0,
0,
0,
0,
0,
0,
0,
0,
0,
0,
0,
0,
0,
0,
0,
0,
0,
0,
0,
0,
0,
0,
0,
0,
0,
0,
0,
0,
0,
0,
0,
0,
0,
0,
0,
0,
0,
0,
0,
0,
0,
0,
0,
0,
0,
0,
0,
0,
0,
0,
0,
0,
0,
0,
0,
0,
0,
0,
0,
0,
0,
0,
0,
0,
0,
0,
0,
0,
0,
0,
0,
0,
0,
0,
0,
0,
0,
0,
#ENDOFDATA   :

File: SPI MM2 SPI Olivine[4][4].msa
#FORMAT      : EMSA/MAS Spectral Data File
#VERSION     : 1.0
#TITLE       : SPI MM2 SPI Olivine[4][all]
#DATE        : 13-MAR-2025
#TIME        : 09:50
#OWNER       : Unknown
#NPOINTS     : 4096
#NCOLUMNS    : 1
#XUNITS      : eV
#YUNITS      : counts
#DATATYPE    : Y
#XPERCHAN    : 9.99778
#OFFSET      : 1.69135
#BEAMKV      : 20
#SIGNALTYPE  : EDS
#ELEVANGLE   : 35
#AZIMANGLE   : 0
#LIVETIME    : 239.764
#REALTIME    : 255.92
#PROBECUR    : 1.02627
#TAUWIND     : 0
#TDEADLYR    : 0
#TACTLYR     : 0.045
#TALWIND     : 0.025
#CHOFFSET    : 0.0
#XLABEL      : Energy (eV)
#YLABEL      : Counts
#XPOSITION   : -3.14696
#YPOSITION   : -2.12472
#ZPOSITION   : 31.03509
#EDSDET      : SD
##SPECIMEN   : SPI MM2 SPI Olivine[4][all]
##D2STDCMP   : SPI Olivine,(O:43.96),(Mg:30.26),(Si:19.14),(Mn:0.089),(Fe:6.35),(Ni:0.278),5.0
##DET_HASH   : 12273538-fd48-a23f-0a19-f1e6fa85caef
##CALIB_HASH : 6abaa72c-aa41-8738-0be9-f592914732f3
##WORKING    : 15.0 mm
##DET_NAME   : EDAX All
##DET_MODE   : MediumLE
#SPECTRUM    :
26,
212,
8364,
6859,
68355,
7314,
3252,
3545,
5808,
241025,
2845,
3375,
39543,
19522,
2178,
2326,
2687,
2371,
2744,
2349,
2283,
2420,
2273,
2170,
2002,
2071,
1902,
1780,
1762,
1695,
1659,
1606,
1586,
1485,
1406,
1380,
1346,
1326,
1290,
1203,
1197,
1081,
1307,
1103,
1033,
3633,
9370,
1012,
845,
988,
1776,
1260,
763,
999,
870,
696,
641,
611,
631,
643,
626,
563,
533,
512,
473,
528,
465,
459,
425,
426,
401,
412,
397,
386,
367,
321,
311,
295,
330,
290,
289,
308,
258,
258,
243,
219,
213,
215,
196,
187,
186,
199,
185,
173,
171,
154,
140,
123,
112,
116,
115,
107,
103,
80,
87,
81,
82,
78,
84,
62,
87,
53,
56,
52,
40,
42,
46,
45,
34,
29,
36,
26,
28,
25,
22,
16,
18,
9,
15,
21,
16,
9,
18,
11,
6,
8,
7,
3,
3,
2,
1,
3,
2,
0,
1,
0,
0,
0,
0,
0,
0,
0,
0,
0,
0,
0,
0,
0,
0,
0,
0,
0,
0,
0,
0,
0,
0,
0,
0,
0,
0,
0,
0,
0,
0,
0,
0,
0,
0,
0,
0,
1,
0,
0,
0,
0,
0,
0,
0,
0,
0,
0,
0,
0,
0,
0,
0,
0,
0,
0,
0,
0,
0,
0,
0,
0,
0,
0,
0,
0,
0,
0,
0,
0,
0,
0,
0,
0,
0,
0,
0,
0,
0,
0,
0,
0,
0,
0,
0,
0,
0,
0,
0,
0,
0,
0,
0,
0,
0,
0,
0,
0,
0,
0,
0,
0,
0,
0,
0,
0,
0,
0,
0,
0,
0,
0,
0,
0,
0,
0,
0,
0,
0,
0,
0,
0,
0,
0,
0,
0,
0,
0,
0,
0,
0,
0,
0,
0,
0,
0,
0,
0,
0,
0,
0,
0,
0,
0,
0,
0,
0,
0,
0,
0,
#ENDOFDATA   :

File: SPI MM2 SPI Olivine[5][4].msa
#FORMAT      : EMSA/MAS Spectral Data File
#VERSION     : 1.0
#TITLE       : SPI MM2 SPI Olivine[5][all]
#DATE        : 13-MAR-2025
#TIME        : 09:51
#OWNER       : Unknown
#NPOINTS     : 4096
#NCOLUMNS    : 1
#XUNITS      : eV
#YUNITS      : counts
#DATATYPE    : Y
#XPERCHAN    : 9.99778
#OFFSET      : 1.69135
#BEAMKV      : 20
#SIGNALTYPE  : EDS
#ELEVANGLE   : 35
#AZIMANGLE   : 0
#LIVETIME    : 239.493
#REALTIME    : 255.531
#PROBECUR    : 1.02627
#TAUWIND     : 0
#TDEADLYR    : 0
#TACTLYR     : 0.045
#TALWIND     : 0.025
#CHOFFSET    : 0.0
#XLABEL      : Energy (eV)
#YLABEL      : Counts
#XPOSITION   : -3.22091
#YPOSITION   : -2.12755
#ZPOSITION   : 31.03509
#EDSDET      : SD
##SPECIMEN   : SPI MM2 SPI Olivine[5][all]
##D2STDCMP   : SPI Olivine,(O:43.96),(Mg:30.26),(Si:19.14),(Mn:0.089),(Fe:6.35),(Ni:0.278),5.0
##DET_HASH   : 12273538-fd48-a23f-0a19-f1e6fa85caef
##CALIB_HASH : 6abaa72c-aa41-8738-0be9-f592914732f3
##WORKING    : 15.0 mm
##DET_NAME   : EDAX All
##DET_MODE   : MediumLE
#SPECTRUM    :
32,
171,
8523,
6407,
67248,
7294,
3296,
3448,
5784,
238984,
2809,
3198,
39153,
19157,
2255,
2215,
2663,
2354,
2647,
2279,
2226,
2312,
2140,
2135,
2087,
2065,
1847,
1839,
1815,
1709,
1636,
1611,
1542,
1516,
1411,
1353,
1320,
1308,
1232,
1290,
1164,
1172,
1249,
1039,
1076,
3581,
9398,
1029,
850,
980,
1805,
1288,
770,
974,
863,
707,
662,
650,
591,
640,
580,
574,
565,
557,
527,
482,
488,
441,
424,
401,
394,
368,
384,
372,
337,
346,
327,
337,
321,
289,
267,
260,
258,
250,
227,
199,
223,
201,
209,
194,
177,
178,
198,
144,
160,
142,
123,
121,
135,
134,
124,
86,
100,
103,
100,
92,
66,
76,
70,
76,
66,
49,
61,
47,
54,
37,
43,
41,
34,
35,
29,
24,
38,
34,
23,
11,
18,
20,
15,
17,
13,
11,
10,
5,
7,
8,
2,
4,
4,
4,
3,
4,
1,
0,
0,
0,
0,
0,
0,
0,
0,
0,
0,
0,
0,
0,
0,
0,
0,
0,
0,
0,
0,
1,
0,
1,
0,
0,
0,
0,
0,
0,
0,
0,
0,
0,
0,
0,
0,
0,
0,
0,
0,
0,
0,
0,
0,
0,
0,
0,
0,
0,
0,
0,
0,
0,
0,
0,
0,
0,
0,
0,
0,
0,
0,
0,
0,
0,
0,
0,
0,
0,
0,
0,
0,
0,
0,
0,
0,
0,
0,
0,
0,
0,
0,
0,
0,
0,
0,
0,
0,
0,
0,
0,
0,
0,
0,
0,
0,
0,
0,
0,
0,
0,
0,
0,
0,
0,
0,
0,
0,
0,
0,
0,
0,
0,
0,
0,
0,
0,
0,
0,
0,
0,
0,
0,
0,
0,
0,
0,
0,
0,
0,
0,
0,
0,
0,
0,
0,
0,
0,
0,
0,
0,
0,
0,
0,
0,
0,
0,
0,
0,
0,
0,
#ENDOFDATA   :