Folder: spex_quant/N132962/Quantification/20 keV/MMM2 (part 3)

File: SPI MM2 Pyrope[1][4].msa
#FORMAT      : EMSA/MAS Spectral Data File
#VERSION     : 1.0
#TITLE       : SPI MM2 Pyrope[1][all]
#DATE        : 13-MAR-2025
#TIME        : 12:41
#OWNER       : Unknown
#NPOINTS     : 4096
#NCOLUMNS    : 1
#XUNITS      : eV
#YUNITS      : counts
#DATATYPE    : Y
#XPERCHAN    : 9.99778
#OFFSET      : 1.69135
#BEAMKV      : 20
#SIGNALTYPE  : EDS
#ELEVANGLE   : 35
#AZIMANGLE   : 0
#LIVETIME    : 239.8023
#REALTIME    : 255.022
#PROBECUR    : 1.02627
#TAUWIND     : 0
#TDEADLYR    : 0
#TACTLYR     : 0.045
#TALWIND     : 0.025
#CHOFFSET    : 0.0
#XLABEL      : Energy (eV)
#YLABEL      : Counts
#XPOSITION   : 4.58345
#YPOSITION   : 1.53495
#ZPOSITION   : 31.03511
#EDSDET      : SD
##SPECIMEN   : SPI MM2 Pyrope[1][all]
##D2STDCMP   : Pyrope,(O:47.6258),(Mg:18.0873),(Al:13.3861),(Si:20.9007),5.0
##DET_HASH   : 12273538-fd48-a23f-0a19-f1e6fa85caef
##CALIB_HASH : 6abaa72c-aa41-8738-0be9-f592914732f3
##WORKING    : 15.0 mm
##DET_NAME   : EDAX All
##DET_MODE   : MediumLE
#SPECTRUM    :
23,
198,
9303,
6026,
58749,
7313,
2565,
3184,
4296,
94401,
8554,
30268,
40648,
20066,
2537,
2353,
2838,
2488,
2436,
2381,
2323,
2460,
2274,
2349,
2174,
2173,
9491,
4350,
2182,
2918,
1656,
1580,
2496,
1615,
1496,
1631,
1350,
1350,
1762,
2638,
1187,
1191,
1675,
1203,
1070,
3972,
10480,
1132,
908,
967,
1867,
1350,
813,
735,
773,
689,
667,
639,
621,
701,
573,
588,
570,
525,
484,
505,
520,
490,
502,
454,
425,
396,
374,
402,
394,
339,
357,
337,
306,
283,
257,
285,
264,
280,
213,
252,
232,
229,
222,
183,
183,
170,
165,
170,
142,
149,
167,
135,
127,
117,
118,
130,
93,
90,
92,
99,
68,
70,
75,
78,
68,
62,
73,
58,
51,
51,
44,
32,
33,
28,
45,
32,
27,
33,
30,
22,
27,
27,
26,
16,
16,
13,
9,
10,
8,
8,
11,
6,
3,
2,
1,
2,
0,
1,
0,
1,
0,
0,
0,
0,
0,
0,
0,
0,
0,
0,
0,
0,
0,
0,
0,
0,
0,
1,
0,
0,
0,
0,
0,
0,
0,
0,
0,
0,
0,
0,
0,
0,
0,
0,
0,
0,
0,
0,
0,
0,
0,
0,
0,
0,
0,
0,
0,
0,
0,
0,
0,
0,
0,
0,
0,
0,
0,
0,
0,
0,
0,
0,
0,
0,
0,
0,
0,
0,
0,
0,
0,
0,
0,
0,
0,
0,
0,
0,
0,
0,
0,
0,
0,
0,
0,
0,
0,
0,
0,
0,
0,
0,
0,
0,
0,
0,
0,
0,
0,
0,
0,
0,
0,
0,
0,
0,
0,
0,
0,
0,
0,
0,
0,
0,
0,
0,
0,
0,
0,
0,
0,
0,
0,
0,
0,
0,
0,
0,
0,
0,
0,
0,
0,
0,
0,
0,
0,
0,
0,
0,
0,
0,
0,
0,
0,
0,
0,
0,
#ENDOFDATA   :

File: SPI MM2 Pyrope[2][4].msa
#FORMAT      : EMSA/MAS Spectral Data File
#VERSION     : 1.0
#TITLE       : SPI MM2 Pyrope[2][all]
#DATE        : 13-MAR-2025
#TIME        : 12:42
#OWNER       : Unknown
#NPOINTS     : 4096
#NCOLUMNS    : 1
#XUNITS      : eV
#YUNITS      : counts
#DATATYPE    : Y
#XPERCHAN    : 9.99778
#OFFSET      : 1.69135
#BEAMKV      : 20
#SIGNALTYPE  : EDS
#ELEVANGLE   : 35
#AZIMANGLE   : 0
#LIVETIME    : 239.5837
#REALTIME    : 254.76
#PROBECUR    : 1.02627
#TAUWIND     : 0
#TDEADLYR    : 0
#TACTLYR     : 0.045
#TALWIND     : 0.025
#CHOFFSET    : 0.0
#XLABEL      : Energy (eV)
#YLABEL      : Counts
#XPOSITION   : 4.57538
#YPOSITION   : 1.55069
#ZPOSITION   : 31.03511
#EDSDET      : SD
##SPECIMEN   : SPI MM2 Pyrope[2][all]
##D2STDCMP   : Pyrope,(O:47.6258),(Mg:18.0873),(Al:13.3861),(Si:20.9007),5.0
##DET_HASH   : 12273538-fd48-a23f-0a19-f1e6fa85caef
##CALIB_HASH : 6abaa72c-aa41-8738-0be9-f592914732f3
##WORKING    : 15.0 mm
##DET_NAME   : EDAX All
##DET_MODE   : MediumLE
#SPECTRUM    :
29,
184,
9507,
5849,
58252,
7218,
2490,
3294,
4274,
94248,
8288,
30409,
40820,
20011,
2633,
2343,
2690,
2551,
2490,
2476,
2368,
2417,
2308,
2312,
2066,
2251,
9323,
4239,
2173,
2917,
1701,
1553,
2495,
1667,
1460,
1628,
1402,
1400,
1836,
2549,
1141,
1173,
1762,
1271,
1110,
3820,
10295,
1022,
957,
959,
1926,
1351,
770,
778,
710,
740,
711,
682,
674,
641,
631,
579,
578,
563,
515,
502,
470,
479,
472,
445,
440,
415,
415,
377,
347,
352,
369,
344,
317,
323,
286,
275,
285,
249,
251,
247,
224,
227,
258,
212,
197,
165,
179,
168,
154,
160,
140,
134,
127,
136,
121,
109,
111,
100,
119,
90,
93,
87,
86,
73,
79,
56,
63,
61,
52,
47,
48,
39,
40,
37,
31,
32,
34,
31,
21,
23,
24,
19,
9,
21,
23,
17,
13,
9,
4,
10,
7,
6,
5,
3,
1,
1,
0,
0,
1,
0,
0,
0,
0,
0,
0,
0,
0,
0,
0,
0,
0,
0,
0,
0,
0,
0,
0,
0,
0,
0,
0,
0,
0,
0,
0,
0,
0,
0,
0,
0,
0,
0,
0,
0,
0,
0,
0,
0,
1,
0,
0,
0,
0,
0,
0,
0,
0,
0,
0,
0,
0,
0,
0,
0,
0,
0,
0,
0,
0,
0,
0,
0,
0,
0,
0,
0,
0,
0,
0,
0,
0,
0,
0,
0,
0,
0,
0,
0,
0,
0,
0,
0,
0,
0,
0,
0,
0,
0,
0,
0,
0,
0,
0,
0,
0,
0,
0,
0,
0,
0,
0,
0,
0,
0,
0,
0,
0,
0,
0,
0,
0,
0,
0,
0,
0,
0,
0,
0,
0,
0,
0,
0,
0,
0,
0,
0,
0,
0,
0,
0,
0,
0,
0,
0,
0,
0,
0,
0,
0,
0,
0,
0,
0,
0,
0,
0,
0,
0,
#ENDOFDATA   :

File: SPI MM2 Pyrope[3][4].msa
#FORMAT      : EMSA/MAS Spectral Data File
#VERSION     : 1.0
#TITLE       : SPI MM2 Pyrope[3][all]
#DATE        : 13-MAR-2025
#TIME        : 12:43
#OWNER       : Unknown
#NPOINTS     : 4096
#NCOLUMNS    : 1
#XUNITS      : eV
#YUNITS      : counts
#DATATYPE    : Y
#XPERCHAN    : 9.99778
#OFFSET      : 1.69135
#BEAMKV      : 20
#SIGNALTYPE  : EDS
#ELEVANGLE   : 35
#AZIMANGLE   : 0
#LIVETIME    : 239.931
#REALTIME    : 255.142
#PROBECUR    : 1.02627
#TAUWIND     : 0
#TDEADLYR    : 0
#TACTLYR     : 0.045
#TALWIND     : 0.025
#CHOFFSET    : 0.0
#XLABEL      : Energy (eV)
#YLABEL      : Counts
#XPOSITION   : 4.57482
#YPOSITION   : 1.52165
#ZPOSITION   : 31.03511
#EDSDET      : SD
##SPECIMEN   : SPI MM2 Pyrope[3][all]
##D2STDCMP   : Pyrope,(O:47.6258),(Mg:18.0873),(Al:13.3861),(Si:20.9007),5.0
##DET_HASH   : 12273538-fd48-a23f-0a19-f1e6fa85caef
##CALIB_HASH : 6abaa72c-aa41-8738-0be9-f592914732f3
##WORKING    : 15.0 mm
##DET_NAME   : EDAX All
##DET_MODE   : MediumLE
#SPECTRUM    :
14,
172,
9450,
6087,
58174,
7344,
2595,
3241,
4375,
94672,
8453,
30761,
40743,
19856,
2638,
2300,
2719,
2411,
2464,
2373,
2348,
2430,
2301,
2217,
2038,
2187,
9286,
4206,
2122,
2924,
1718,
1621,
2541,
1716,
1478,
1653,
1404,
1333,
1799,
2637,
1235,
1116,
1735,
1199,
1082,
3910,
10252,
1044,
944,
937,
1910,
1355,
827,
762,
722,
748,
687,
680,
672,
659,
633,
585,
567,
519,
522,
533,
480,
469,
470,
458,
428,
423,
380,
379,
395,
327,
363,
307,
311,
320,
308,
278,
277,
273,
244,
248,
204,
222,
194,
200,
196,
174,
176,
183,
164,
152,
144,
157,
142,
114,
134,
105,
117,
88,
91,
115,
76,
81,
78,
73,
74,
70,
61,
52,
49,
47,
41,
43,
40,
37,
36,
25,
22,
23,
29,
22,
18,
17,
18,
22,
14,
14,
9,
7,
10,
8,
2,
5,
5,
2,
2,
1,
1,
0,
0,
1,
0,
0,
0,
0,
0,
0,
0,
0,
0,
0,
0,
0,
0,
0,
0,
0,
0,
0,
0,
0,
0,
0,
0,
0,
0,
0,
0,
0,
0,
0,
0,
0,
0,
0,
0,
0,
0,
0,
0,
0,
0,
0,
0,
0,
0,
0,
0,
0,
0,
0,
0,
0,
0,
0,
0,
0,
0,
0,
0,
0,
0,
0,
0,
0,
0,
0,
0,
0,
0,
0,
0,
0,
0,
0,
0,
0,
0,
0,
0,
0,
0,
0,
0,
0,
0,
0,
0,
0,
0,
0,
0,
0,
0,
0,
0,
0,
0,
0,
0,
0,
0,
0,
0,
0,
0,
0,
0,
0,
0,
0,
0,
0,
0,
0,
0,
0,
0,
0,
0,
0,
0,
0,
0,
0,
0,
0,
0,
0,
0,
0,
0,
0,
0,
0,
0,
0,
0,
0,
0,
0,
0,
0,
0,
0,
0,
0,
0,
0,
#ENDOFDATA   :

File: SPI MM2 Pyrope[4][4].msa
#FORMAT      : EMSA/MAS Spectral Data File
#VERSION     : 1.0
#TITLE       : SPI MM2 Pyrope[4][all]
#DATE        : 13-MAR-2025
#TIME        : 12:44
#OWNER       : Unknown
#NPOINTS     : 4096
#NCOLUMNS    : 1
#XUNITS      : eV
#YUNITS      : counts
#DATATYPE    : Y
#XPERCHAN    : 9.99778
#OFFSET      : 1.69135
#BEAMKV      : 20
#SIGNALTYPE  : EDS
#ELEVANGLE   : 35
#AZIMANGLE   : 0
#LIVETIME    : 240.067
#REALTIME    : 255.4001
#PROBECUR    : 1.02627
#TAUWIND     : 0
#TDEADLYR    : 0
#TACTLYR     : 0.045
#TALWIND     : 0.025
#CHOFFSET    : 0.0
#XLABEL      : Energy (eV)
#YLABEL      : Counts
#XPOSITION   : 4.6516
#YPOSITION   : 1.51224
#ZPOSITION   : 31.03511
#EDSDET      : SD
##SPECIMEN   : SPI MM2 Pyrope[4][all]
##D2STDCMP   : Pyrope,(O:47.6258),(Mg:18.0873),(Al:13.3861),(Si:20.9007),5.0
##DET_HASH   : 12273538-fd48-a23f-0a19-f1e6fa85caef
##CALIB_HASH : 6abaa72c-aa41-8738-0be9-f592914732f3
##WORKING    : 15.0 mm
##DET_NAME   : EDAX All
##DET_MODE   : MediumLE
#SPECTRUM    :
26,
175,
9317,
6014,
58842,
7361,
2518,
3356,
4368,
94651,
8538,
30490,
40916,
19938,
2603,
2448,
2710,
2497,
2508,
2411,
2354,
2390,
2189,
2388,
2128,
2268,
9340,
4311,
2137,
2942,
1702,
1692,
2454,
1576,
1491,
1576,
1325,
1320,
1786,
2600,
1208,
1178,
1686,
1217,
1063,
4010,
10435,
1083,
928,
889,
1939,
1351,
785,
864,
768,
706,
656,
699,
696,
628,
628,
572,
560,
553,
541,
505,
468,
440,
434,
448,
437,
420,
417,
380,
378,
369,
351,
364,
320,
308,
298,
277,
257,
257,
252,
229,
244,
246,
224,
188,
189,
178,
175,
120,
157,
150,
119,
118,
116,
117,
110,
124,
104,
97,
98,
97,
96,
91,
83,
69,
68,
65,
64,
61,
50,
47,
49,
42,
33,
42,
33,
40,
34,
29,
29,
17,
14,
19,
25,
10,
12,
9,
7,
8,
9,
7,
6,
5,
2,
0,
1,
6,
1,
1,
0,
0,
0,
0,
0,
0,
0,
0,
0,
0,
0,
1,
0,
0,
0,
0,
0,
0,
0,
0,
0,
0,
0,
0,
0,
0,
0,
0,
0,
0,
0,
0,
0,
0,
0,
0,
0,
0,
0,
0,
0,
0,
0,
0,
0,
0,
0,
0,
0,
0,
0,
0,
0,
0,
0,
0,
0,
0,
0,
0,
0,
0,
0,
0,
0,
0,
0,
0,
0,
0,
0,
0,
0,
0,
0,
0,
0,
0,
0,
0,
0,
0,
0,
0,
0,
0,
0,
0,
0,
0,
0,
0,
0,
0,
0,
0,
0,
0,
0,
0,
0,
0,
0,
0,
0,
0,
0,
0,
0,
0,
0,
0,
0,
0,
0,
0,
0,
0,
0,
0,
0,
0,
0,
0,
0,
0,
0,
0,
0,
0,
0,
0,
0,
0,
0,
0,
0,
0,
0,
0,
0,
0,
0,
0,
0,
0,
0,
0,
0,
0,
#ENDOFDATA   :

File: SPI MM2 Pyrope[5][4].msa
#FORMAT      : EMSA/MAS Spectral Data File
#VERSION     : 1.0
#TITLE       : SPI MM2 Pyrope[5][all]
#DATE        : 13-MAR-2025
#TIME        : 12:45
#OWNER       : Unknown
#NPOINTS     : 4096
#NCOLUMNS    : 1
#XUNITS      : eV
#YUNITS      : counts
#DATATYPE    : Y
#XPERCHAN    : 9.99778
#OFFSET      : 1.69135
#BEAMKV      : 20
#SIGNALTYPE  : EDS
#ELEVANGLE   : 35
#AZIMANGLE   : 0
#LIVETIME    : 240.022
#REALTIME    : 255.341
#PROBECUR    : 1.02627
#TAUWIND     : 0
#TDEADLYR    : 0
#TACTLYR     : 0.045
#TALWIND     : 0.025
#CHOFFSET    : 0.0
#XLABEL      : Energy (eV)
#YLABEL      : Counts
#XPOSITION   : 4.64812
#YPOSITION   : 1.52895
#ZPOSITION   : 31.03511
#EDSDET      : SD
##SPECIMEN   : SPI MM2 Pyrope[5][all]
##D2STDCMP   : Pyrope,(O:47.6258),(Mg:18.0873),(Al:13.3861),(Si:20.9007),5.0
##DET_HASH   : 12273538-fd48-a23f-0a19-f1e6fa85caef
##CALIB_HASH : 6abaa72c-aa41-8738-0be9-f592914732f3
##WORKING    : 15.0 mm
##DET_NAME   : EDAX All
##DET_MODE   : MediumLE
#SPECTRUM    :
23,
201,
9413,
5968,
59581,
7389,
2620,
3326,
4417,
95369,
8565,
30688,
41289,
20007,
2561,
2391,
2763,
2366,
2555,
2385,
2439,
2406,
2310,
2387,
2091,
2191,
9391,
4349,
2196,
2793,
1654,
1599,
2390,
1705,
1450,
1566,
1414,
1324,
1755,
2606,
1231,
1195,
1741,
1231,
1100,
3955,
10193,
1064,
954,
913,
1882,
1350,
736,
778,
720,
705,
714,
649,
687,
617,
563,
582,
551,
529,
553,
517,
501,
461,
500,
473,
432,
425,
397,
408,
380,
329,
333,
350,
293,
303,
263,
273,
286,
263,
241,
239,
219,
237,
220,
210,
216,
169,
147,
181,
147,
160,
155,
148,
127,
130,
129,
106,
98,
116,
105,
89,
88,
57,
62,
75,
59,
68,
69,
47,
52,
51,
32,
40,
42,
33,
29,
25,
23,
31,
19,
26,
32,
21,
21,
9,
15,
6,
13,
7,
13,
2,
12,
6,
3,
3,
4,
0,
2,
1,
0,
0,
0,
0,
0,
0,
0,
0,
0,
0,
1,
0,
0,
0,
0,
0,
0,
0,
0,
0,
0,
0,
0,
0,
0,
0,
0,
0,
0,
0,
0,
0,
0,
0,
0,
0,
0,
0,
0,
0,
0,
0,
0,
0,
0,
0,
0,
0,
0,
0,
1,
0,
0,
0,
0,
0,
0,
0,
0,
0,
0,
0,
0,
0,
0,
0,
0,
0,
0,
0,
0,
0,
0,
0,
0,
0,
0,
0,
0,
0,
0,
0,
0,
0,
0,
0,
0,
0,
0,
0,
0,
0,
0,
0,
0,
0,
0,
0,
0,
0,
0,
0,
0,
0,
0,
0,
0,
0,
0,
0,
0,
0,
0,
0,
0,
0,
0,
0,
0,
0,
0,
0,
0,
0,
0,
0,
0,
0,
0,
0,
0,
0,
0,
0,
0,
0,
0,
0,
0,
0,
0,
0,
0,
0,
0,
0,
0,
0,
0,
0,
#ENDOFDATA   :

File: SPI MM2 Pyrope[6][4].msa
#FORMAT      : EMSA/MAS Spectral Data File
#VERSION     : 1.0
#TITLE       : SPI MM2 Pyrope[6][all]
#DATE        : 13-MAR-2025
#TIME        : 12:46
#OWNER       : Unknown
#NPOINTS     : 4096
#NCOLUMNS    : 1
#XUNITS      : eV
#YUNITS      : counts
#DATATYPE    : Y
#XPERCHAN    : 9.99778
#OFFSET      : 1.69135
#BEAMKV      : 20
#SIGNALTYPE  : EDS
#ELEVANGLE   : 35
#AZIMANGLE   : 0
#LIVETIME    : 239.94
#REALTIME    : 255.2137
#PROBECUR    : 1.02627
#TAUWIND     : 0
#TDEADLYR    : 0
#TACTLYR     : 0.045
#TALWIND     : 0.025
#CHOFFSET    : 0.0
#XLABEL      : Energy (eV)
#YLABEL      : Counts
#XPOSITION   : 4.62814
#YPOSITION   : 1.51574
#ZPOSITION   : 31.03511
#EDSDET      : SD
##SPECIMEN   : SPI MM2 Pyrope[6][all]
##D2STDCMP   : Pyrope,(O:47.6258),(Mg:18.0873),(Al:13.3861),(Si:20.9007),5.0
##DET_HASH   : 12273538-fd48-a23f-0a19-f1e6fa85caef
##CALIB_HASH : 6abaa72c-aa41-8738-0be9-f592914732f3
##WORKING    : 15.0 mm
##DET_NAME   : EDAX All
##DET_MODE   : MediumLE
#SPECTRUM    :
26,
187,
9338,
6049,
58407,
7352,
2639,
3197,
4468,
95063,
8445,
30552,
41434,
19915,
2645,
2400,
2691,
2476,
2434,
2452,
2403,
2368,
2339,
2420,
2158,
2295,
9343,
4361,
2211,
2992,
1777,
1625,
2471,
1693,
1483,
1583,
1469,
1386,
1776,
2656,
1251,
1238,
1835,
1189,
1090,
3990,
10305,
1082,
905,
942,
1957,
1280,
787,
786,
782,
756,
739,
695,
638,
623,
578,
572,
565,
535,
501,
528,
502,
474,
474,
417,
476,
426,
383,
379,
409,
359,
349,
296,
310,
287,
306,
272,
299,
252,
258,
216,
222,
215,
214,
179,
208,
177,
176,
163,
176,
169,
159,
123,
137,
121,
111,
132,
114,
102,
102,
82,
82,
94,
71,
73,
75,
68,
61,
63,
54,
46,
44,
49,
45,
41,
33,
34,
35,
25,
32,
17,
19,
22,
16,
17,
18,
12,
10,
6,
8,
10,
5,
6,
3,
4,
0,
2,
1,
1,
0,
0,
0,
0,
0,
0,
0,
0,
0,
0,
0,
0,
0,
0,
0,
0,
0,
0,
0,
0,
0,
0,
0,
0,
0,
0,
0,
0,
0,
0,
0,
0,
0,
0,
0,
0,
0,
0,
0,
0,
0,
0,
0,
0,
0,
0,
0,
0,
0,
0,
0,
0,
0,
0,
0,
0,
0,
0,
0,
0,
0,
0,
0,
0,
0,
0,
0,
0,
0,
0,
0,
0,
0,
0,
0,
0,
0,
0,
0,
0,
0,
0,
0,
0,
0,
0,
0,
0,
0,
0,
0,
0,
0,
0,
0,
0,
0,
0,
0,
0,
0,
0,
0,
0,
0,
0,
0,
0,
0,
0,
0,
0,
0,
0,
0,
0,
0,
0,
0,
0,
0,
0,
0,
0,
0,
0,
0,
0,
0,
0,
0,
0,
0,
0,
0,
0,
0,
0,
0,
0,
0,
0,
0,
0,
0,
0,
0,
0,
0,
0,
#ENDOFDATA   :

File: SPI MM2 Pyrope[7][4].msa
#FORMAT      : EMSA/MAS Spectral Data File
#VERSION     : 1.0
#TITLE       : SPI MM2 Pyrope[7][all]
#DATE        : 13-MAR-2025
#TIME        : 12:47
#OWNER       : Unknown
#NPOINTS     : 4096
#NCOLUMNS    : 1
#XUNITS      : eV
#YUNITS      : counts
#DATATYPE    : Y
#XPERCHAN    : 9.99778
#OFFSET      : 1.69135
#BEAMKV      : 20
#SIGNALTYPE  : EDS
#ELEVANGLE   : 35
#AZIMANGLE   : 0
#LIVETIME    : 239.828
#REALTIME    : 255.077
#PROBECUR    : 1.02627
#TAUWIND     : 0
#TDEADLYR    : 0
#TACTLYR     : 0.045
#TALWIND     : 0.025
#CHOFFSET    : 0.0
#XLABEL      : Energy (eV)
#YLABEL      : Counts
#XPOSITION   : 4.59417
#YPOSITION   : 1.53982
#ZPOSITION   : 31.03511
#EDSDET      : SD
##SPECIMEN   : SPI MM2 Pyrope[7][all]
##D2STDCMP   : Pyrope,(O:47.6258),(Mg:18.0873),(Al:13.3861),(Si:20.9007),5.0
##DET_HASH   : 12273538-fd48-a23f-0a19-f1e6fa85caef
##CALIB_HASH : 6abaa72c-aa41-8738-0be9-f592914732f3
##WORKING    : 15.0 mm
##DET_NAME   : EDAX All
##DET_MODE   : MediumLE
#SPECTRUM    :
17,
196,
9330,
6029,
59206,
7139,
2579,
3307,
4401,
94839,
8397,
30869,
40873,
20209,
2717,
2415,
2608,
2438,
2489,
2343,
2395,
2360,
2336,
2281,
2128,
2129,
9472,
4312,
2193,
2901,
1818,
1642,
2535,
1610,
1501,
1617,
1442,
1375,
1855,
2652,
1212,
1185,
1748,
1274,
1108,
3899,
10330,
1092,
850,
957,
1975,
1364,
756,
807,
754,
687,
684,
658,
622,
619,
604,
606,
543,
563,
554,
501,
489,
456,
478,
452,
428,
394,
405,
384,
394,
339,
366,
336,
299,
285,
293,
268,
264,
263,
214,
240,
223,
241,
215,
220,
193,
160,
155,
177,
166,
140,
128,
125,
148,
134,
123,
109,
81,
100,
85,
93,
89,
68,
86,
87,
66,
65,
58,
62,
44,
45,
45,
45,
39,
35,
36,
26,
37,
25,
27,
31,
18,
26,
18,
16,
15,
18,
7,
11,
6,
7,
7,
5,
6,
1,
1,
1,
1,
1,
2,
0,
0,
0,
0,
0,
0,
0,
0,
0,
0,
0,
0,
0,
1,
0,
0,
0,
0,
0,
0,
0,
0,
0,
0,
0,
0,
0,
0,
0,
0,
0,
0,
0,
0,
1,
0,
0,
0,
0,
0,
0,
0,
0,
0,
0,
0,
0,
0,
0,
1,
0,
0,
0,
0,
0,
0,
0,
0,
0,
0,
0,
0,
0,
0,
0,
0,
0,
0,
0,
0,
0,
0,
0,
0,
0,
0,
0,
0,
0,
0,
0,
0,
0,
0,
0,
0,
0,
0,
0,
0,
0,
0,
0,
0,
0,
0,
0,
0,
0,
0,
0,
0,
0,
0,
0,
0,
0,
0,
0,
0,
0,
0,
0,
0,
0,
0,
0,
0,
0,
0,
0,
0,
0,
0,
0,
0,
0,
0,
0,
0,
0,
0,
0,
0,
0,
0,
0,
0,
0,
0,
0,
0,
0,
0,
0,
0,
0,
0,
0,
#ENDOFDATA   :

File: SPI MM2 Quartz[1][4].msa
#FORMAT      : EMSA/MAS Spectral Data File
#VERSION     : 1.0
#TITLE       : SPI MM2 Quartz[1][all]
#DATE        : 13-MAR-2025
#TIME        : 12:31
#OWNER       : Unknown
#NPOINTS     : 4096
#NCOLUMNS    : 1
#XUNITS      : eV
#YUNITS      : counts
#DATATYPE    : Y
#XPERCHAN    : 9.99778
#OFFSET      : 1.69135
#BEAMKV      : 20
#SIGNALTYPE  : EDS
#ELEVANGLE   : 35
#AZIMANGLE   : 0
#LIVETIME    : 239.843
#REALTIME    : 257.832
#PROBECUR    : 1.02616
#TAUWIND     : 0
#TDEADLYR    : 0
#TACTLYR     : 0.045
#TALWIND     : 0.025
#CHOFFSET    : 0.0
#XLABEL      : Energy (eV)
#YLABEL      : Counts
#XPOSITION   : 2.45461
#YPOSITION   : 2.23493
#ZPOSITION   : 31.03511
#EDSDET      : SD
##SPECIMEN   : SPI MM2 Quartz[1][all]
##D2STDCMP   : Quartz,(O:53.2565),(Si:46.7435),2.65
##DET_HASH   : 12273538-fd48-a23f-0a19-f1e6fa85caef
##CALIB_HASH : 6abaa72c-aa41-8738-0be9-f592914732f3
##WORKING    : 15.0 mm
##DET_NAME   : EDAX All
##DET_MODE   : MediumLE
#SPECTRUM    :
25,
184,
8540,
6483,
66534,
1987,
2437,
3109,
3513,
4010,
4758,
6053,
129676,
58858,
1989,
2006,
3308,
2069,
2087,
2057,
1971,
2030,
1945,
1918,
1979,
2986,
1775,
1691,
1677,
1592,
1503,
1417,
1418,
1376,
1315,
1319,
1231,
1178,
1132,
1110,
1106,
1079,
1055,
905,
917,
986,
938,
798,
816,
798,
785,
713,
735,
726,
682,
653,
606,
611,
615,
549,
546,
557,
530,
494,
457,
428,
433,
437,
418,
388,
391,
339,
332,
306,
313,
332,
298,
285,
286,
289,
258,
233,
238,
207,
210,
209,
178,
204,
197,
149,
157,
174,
170,
137,
142,
143,
142,
121,
89,
103,
114,
88,
84,
90,
74,
81,
87,
69,
73,
63,
50,
51,
55,
53,
50,
48,
31,
36,
26,
31,
23,
25,
24,
40,
19,
26,
20,
16,
20,
15,
10,
8,
7,
11,
5,
4,
9,
2,
4,
0,
2,
3,
0,
0,
1,
0,
0,
1,
0,
0,
0,
1,
0,
0,
0,
0,
0,
0,
0,
0,
0,
0,
0,
0,
0,
0,
0,
0,
0,
0,
0,
0,
0,
0,
0,
0,
0,
0,
0,
0,
0,
0,
0,
1,
0,
0,
0,
0,
0,
0,
0,
0,
0,
0,
0,
0,
0,
0,
0,
0,
0,
0,
0,
0,
0,
0,
0,
0,
0,
0,
0,
0,
0,
0,
0,
0,
0,
0,
0,
0,
0,
0,
0,
0,
0,
0,
0,
0,
0,
0,
0,
0,
0,
0,
0,
0,
0,
0,
0,
0,
0,
0,
0,
0,
0,
0,
0,
0,
0,
0,
0,
0,
0,
0,
0,
0,
0,
0,
0,
0,
0,
0,
0,
0,
0,
0,
0,
0,
0,
0,
0,
0,
0,
0,
0,
0,
0,
0,
0,
0,
0,
0,
0,
0,
0,
0,
0,
0,
0,
0,
0,
0,
0,
0,
#ENDOFDATA   :

File: SPI MM2 Quartz[4][4].msa
#FORMAT      : EMSA/MAS Spectral Data File
#VERSION     : 1.0
#TITLE       : SPI MM2 Quartz[4][all]
#DATE        : 13-MAR-2025
#TIME        : 12:35
#OWNER       : Unknown
#NPOINTS     : 4096
#NCOLUMNS    : 1
#XUNITS      : eV
#YUNITS      : counts
#DATATYPE    : Y
#XPERCHAN    : 9.99778
#OFFSET      : 1.69135
#BEAMKV      : 20
#SIGNALTYPE  : EDS
#ELEVANGLE   : 35
#AZIMANGLE   : 0
#LIVETIME    : 239.821
#REALTIME    : 257.775
#PROBECUR    : 1.02627
#TAUWIND     : 0
#TDEADLYR    : 0
#TACTLYR     : 0.045
#TALWIND     : 0.025
#CHOFFSET    : 0.0
#XLABEL      : Energy (eV)
#YLABEL      : Counts
#XPOSITION   : 2.45647
#YPOSITION   : 2.26781
#ZPOSITION   : 31.03511
#EDSDET      : SD
##SPECIMEN   : SPI MM2 Quartz[4][all]
##D2STDCMP   : Quartz,(O:53.2565),(Si:46.7435),2.65
##DET_HASH   : 12273538-fd48-a23f-0a19-f1e6fa85caef
##CALIB_HASH : 6abaa72c-aa41-8738-0be9-f592914732f3
##WORKING    : 15.0 mm
##DET_NAME   : EDAX All
##DET_MODE   : MediumLE
#SPECTRUM    :
28,
182,
8488,
6262,
66098,
2026,
2426,
3079,
3478,
4088,
4736,
6154,
129436,
58497,
1987,
2002,
3246,
2124,
2035,
2090,
2082,
2040,
1979,
1869,
1899,
2995,
1820,
1670,
1693,
1523,
1531,
1491,
1464,
1327,
1333,
1330,
1191,
1242,
1138,
1118,
1081,
984,
919,
979,
910,
900,
944,
843,
783,
806,
804,
768,
726,
713,
661,
670,
615,
615,
573,
557,
542,
489,
528,
461,
428,
444,
444,
412,
409,
381,
379,
371,
376,
309,
323,
311,
323,
329,
320,
273,
256,
245,
237,
226,
200,
199,
163,
177,
179,
196,
159,
145,
153,
158,
135,
141,
113,
105,
110,
112,
103,
93,
99,
75,
86,
60,
71,
80,
82,
66,
58,
56,
61,
48,
44,
34,
61,
35,
38,
37,
28,
22,
21,
14,
20,
30,
18,
16,
14,
13,
9,
14,
7,
8,
7,
7,
4,
10,
5,
0,
4,
1,
0,
0,
1,
0,
0,
0,
0,
0,
0,
0,
0,
1,
1,
0,
0,
0,
0,
0,
0,
0,
0,
0,
0,
0,
0,
0,
0,
0,
0,
0,
0,
0,
0,
0,
0,
0,
0,
0,
0,
0,
0,
0,
0,
0,
0,
0,
0,
0,
0,
0,
0,
0,
0,
0,
0,
0,
0,
0,
0,
0,
0,
0,
0,
0,
0,
0,
0,
0,
0,
0,
0,
0,
0,
0,
0,
0,
0,
0,
0,
0,
0,
0,
0,
0,
0,
0,
0,
0,
0,
0,
0,
0,
0,
0,
0,
0,
0,
0,
0,
0,
0,
0,
0,
0,
0,
0,
0,
0,
0,
0,
0,
0,
0,
0,
0,
0,
0,
0,
0,
0,
0,
0,
0,
0,
0,
0,
0,
0,
0,
0,
0,
0,
0,
0,
0,
0,
0,
0,
0,
0,
0,
0,
0,
0,
0,
0,
0,
0,
0,
0,
0,
0,
#ENDOFDATA   :

File: SPI MM2 Quartz[7][4].msa
#FORMAT      : EMSA/MAS Spectral Data File
#VERSION     : 1.0
#TITLE       : SPI MM2 Quartz[7][all]
#DATE        : 13-MAR-2025
#TIME        : 12:38
#OWNER       : Unknown
#NPOINTS     : 4096
#NCOLUMNS    : 1
#XUNITS      : eV
#YUNITS      : counts
#DATATYPE    : Y
#XPERCHAN    : 9.99778
#OFFSET      : 1.69135
#BEAMKV      : 20
#SIGNALTYPE  : EDS
#ELEVANGLE   : 35
#AZIMANGLE   : 0
#LIVETIME    : 239.846
#REALTIME    : 257.713
#PROBECUR    : 1.02627
#TAUWIND     : 0
#TDEADLYR    : 0
#TACTLYR     : 0.045
#TALWIND     : 0.025
#CHOFFSET    : 0.0
#XLABEL      : Energy (eV)
#YLABEL      : Counts
#XPOSITION   : 2.42408
#YPOSITION   : 2.20814
#ZPOSITION   : 31.03511
#EDSDET      : SD
##SPECIMEN   : SPI MM2 Quartz[7][all]
##D2STDCMP   : Quartz,(O:53.2565),(Si:46.7435),2.65
##DET_HASH   : 12273538-fd48-a23f-0a19-f1e6fa85caef
##CALIB_HASH : 6abaa72c-aa41-8738-0be9-f592914732f3
##WORKING    : 15.0 mm
##DET_NAME   : EDAX All
##DET_MODE   : MediumLE
#SPECTRUM    :
37,
188,
8518,
6223,
65250,
1955,
2379,
2998,
3627,
4108,
4891,
6133,
129604,
58378,
1951,
1995,
3284,
2080,
1965,
2109,
2066,
2022,
1923,
1953,
1924,
2957,
1798,
1661,
1662,
1615,
1571,
1458,
1373,
1387,
1369,
1341,
1218,
1212,
1215,
1151,
1094,
1018,
991,
1029,
971,
904,
940,
800,
946,
720,
741,
694,
761,
717,
743,
669,
623,
642,
577,
559,
587,
508,
512,
465,
464,
446,
410,
402,
451,
393,
383,
355,
350,
326,
355,
303,
302,
301,
275,
260,
259,
255,
229,
239,
218,
190,
196,
191,
212,
185,
161,
153,
163,
147,
141,
124,
127,
106,
105,
106,
98,
117,
96,
97,
78,
61,
69,
72,
59,
70,
55,
59,
37,
46,
48,
43,
40,
32,
41,
29,
28,
24,
37,
18,
19,
15,
29,
15,
13,
16,
12,
6,
6,
6,
9,
6,
6,
5,
3,
1,
1,
0,
0,
0,
0,
0,
0,
0,
0,
0,
0,
0,
0,
0,
0,
0,
0,
0,
0,
0,
0,
0,
0,
0,
0,
0,
0,
0,
0,
0,
0,
0,
0,
0,
0,
0,
1,
0,
0,
0,
0,
0,
0,
0,
0,
0,
0,
0,
0,
0,
0,
0,
0,
0,
0,
0,
0,
0,
0,
0,
0,
0,
0,
0,
0,
0,
0,
0,
0,
0,
0,
0,
0,
0,
0,
0,
0,
0,
0,
0,
0,
0,
0,
0,
0,
0,
0,
0,
0,
0,
0,
0,
0,
0,
0,
0,
0,
0,
0,
0,
0,
0,
0,
0,
0,
0,
0,
0,
0,
0,
0,
0,
0,
0,
0,
0,
0,
0,
0,
0,
0,
0,
0,
0,
0,
0,
0,
0,
0,
0,
0,
0,
0,
0,
0,
0,
0,
0,
0,
0,
0,
0,
0,
0,
0,
0,
0,
0,
0,
0,
0,
0,
0,
0,
#ENDOFDATA   :

File: SPI MM2 Rhodonite[0][4].msa
#FORMAT      : EMSA/MAS Spectral Data File
#VERSION     : 1.0
#TITLE       : SPI MM2 Rhodonite[0][all]
#DATE        : 13-MAR-2025
#TIME        : 12:21
#OWNER       : Unknown
#NPOINTS     : 4096
#NCOLUMNS    : 1
#XUNITS      : eV
#YUNITS      : counts
#DATATYPE    : Y
#XPERCHAN    : 9.99778
#OFFSET      : 1.69135
#BEAMKV      : 20
#SIGNALTYPE  : EDS
#ELEVANGLE   : 35
#AZIMANGLE   : 0
#LIVETIME    : 240.075
#REALTIME    : 256.614
#PROBECUR    : 1.02616
#TAUWIND     : 0
#TDEADLYR    : 0
#TACTLYR     : 0.045
#TALWIND     : 0.025
#CHOFFSET    : 0.0
#XLABEL      : Energy (eV)
#YLABEL      : Counts
#XPOSITION   : 0.04892
#YPOSITION   : 1.23429
#ZPOSITION   : 31.03511
#EDSDET      : SD
##SPECIMEN   : SPI MM2 Rhodonite[0][all]
##DET_HASH   : 12273538-fd48-a23f-0a19-f1e6fa85caef
##CALIB_HASH : 6abaa72c-aa41-8738-0be9-f592914732f3
##WORKING    : 15.0 mm
##DET_NAME   : EDAX All
##DET_MODE   : MediumLE
#SPECTRUM    :
22,
206,
11100,
7090,
63653,
5908,
2407,
2882,
3437,
9959,
4305,
5251,
53214,
26066,
3274,
3312,
3746,
3303,
3275,
3147,
3119,
2919,
3004,
2788,
2749,
2976,
10819,
5096,
2731,
3745,
2501,
2236,
2109,
2081,
1982,
1970,
1844,
1800,
1742,
1650,
1806,
3517,
70573,
7143,
1515,
3152,
13146,
3908,
1103,
1125,
1587,
1331,
981,
1008,
1008,
981,
839,
836,
874,
827,
829,
763,
730,
714,
666,
678,
646,
637,
642,
575,
588,
588,
527,
499,
513,
498,
472,
485,
436,
443,
403,
377,
354,
349,
375,
338,
339,
282,
294,
283,
275,
267,
249,
225,
240,
236,
204,
199,
192,
193,
171,
163,
161,
146,
130,
124,
114,
128,
103,
108,
80,
85,
83,
82,
95,
81,
58,
63,
58,
64,
45,
58,
41,
41,
42,
28,
32,
30,
25,
20,
24,
16,
22,
16,
9,
14,
10,
3,
7,
5,
4,
3,
1,
0,
0,
0,
0,
1,
1,
0,
0,
0,
0,
0,
0,
0,
0,
0,
0,
0,
0,
0,
0,
0,
0,
0,
0,
0,
0,
0,
0,
0,
0,
0,
0,
0,
0,
0,
0,
0,
0,
0,
0,
0,
0,
0,
0,
0,
0,
0,
0,
0,
0,
0,
0,
0,
0,
0,
0,
0,
0,
0,
0,
0,
0,
0,
0,
0,
0,
0,
0,
0,
0,
0,
0,
0,
0,
0,
0,
0,
0,
0,
0,
0,
0,
0,
0,
0,
0,
0,
0,
0,
0,
0,
0,
0,
0,
0,
0,
0,
0,
0,
0,
0,
0,
0,
0,
0,
0,
0,
0,
0,
0,
0,
0,
0,
0,
0,
0,
0,
0,
0,
0,
0,
0,
0,
0,
0,
0,
0,
0,
0,
0,
0,
0,
0,
0,
0,
0,
0,
0,
0,
0,
0,
0,
0,
0,
0,
0,
0,
0,
0,
0,
0,
#ENDOFDATA   :