Folder: spex_quant/N132962/Quantification/20 keV/MMM2 (part 11)

File: SPI MM2 SPI Olivine[6][4].msa
#FORMAT      : EMSA/MAS Spectral Data File
#VERSION     : 1.0
#TITLE       : SPI MM2 SPI Olivine[6][all]
#DATE        : 13-MAR-2025
#TIME        : 09:52
#OWNER       : Unknown
#NPOINTS     : 4096
#NCOLUMNS    : 1
#XUNITS      : eV
#YUNITS      : counts
#DATATYPE    : Y
#XPERCHAN    : 9.99778
#OFFSET      : 1.69135
#BEAMKV      : 20
#SIGNALTYPE  : EDS
#ELEVANGLE   : 35
#AZIMANGLE   : 0
#LIVETIME    : 239.554
#REALTIME    : 255.651
#PROBECUR    : 1.02627
#TAUWIND     : 0
#TDEADLYR    : 0
#TACTLYR     : 0.045
#TALWIND     : 0.025
#CHOFFSET    : 0.0
#XLABEL      : Energy (eV)
#YLABEL      : Counts
#XPOSITION   : -3.18235
#YPOSITION   : -2.08236
#ZPOSITION   : 31.03509
#EDSDET      : SD
##SPECIMEN   : SPI MM2 SPI Olivine[6][all]
##D2STDCMP   : SPI Olivine,(O:43.96),(Mg:30.26),(Si:19.14),(Mn:0.089),(Fe:6.35),(Ni:0.278),5.0
##DET_HASH   : 12273538-fd48-a23f-0a19-f1e6fa85caef
##CALIB_HASH : 6abaa72c-aa41-8738-0be9-f592914732f3
##WORKING    : 15.0 mm
##DET_NAME   : EDAX All
##DET_MODE   : MediumLE
#SPECTRUM    :
30,
207,
8598,
6605,
67983,
7207,
3221,
3542,
5693,
239615,
2820,
3225,
39213,
19189,
2239,
2235,
2641,
2301,
2706,
2320,
2215,
2319,
2247,
2123,
1962,
2114,
1955,
1752,
1747,
1727,
1663,
1611,
1522,
1556,
1357,
1340,
1328,
1252,
1269,
1184,
1155,
1139,
1292,
1088,
989,
3623,
9339,
958,
840,
950,
1796,
1280,
740,
1024,
876,
705,
682,
619,
673,
656,
585,
540,
540,
507,
501,
526,
440,
443,
452,
422,
403,
386,
344,
398,
350,
349,
334,
302,
301,
314,
293,
268,
248,
232,
222,
228,
214,
198,
208,
178,
198,
174,
158,
158,
139,
147,
133,
119,
111,
112,
126,
97,
88,
107,
93,
93,
78,
80,
69,
64,
62,
52,
57,
63,
51,
46,
39,
49,
39,
28,
35,
32,
30,
27,
21,
15,
17,
14,
12,
15,
13,
13,
14,
13,
10,
10,
8,
8,
2,
4,
3,
0,
1,
0,
0,
0,
0,
0,
0,
0,
0,
0,
0,
0,
0,
0,
0,
1,
0,
0,
1,
0,
0,
0,
0,
0,
0,
0,
0,
0,
0,
0,
0,
0,
0,
0,
0,
0,
0,
0,
0,
0,
0,
0,
0,
0,
0,
0,
0,
0,
0,
0,
0,
0,
0,
0,
0,
0,
0,
0,
0,
0,
0,
0,
0,
0,
0,
0,
0,
0,
0,
0,
0,
0,
0,
0,
0,
0,
0,
0,
0,
0,
0,
0,
0,
0,
0,
0,
0,
0,
0,
0,
0,
0,
0,
0,
0,
0,
0,
0,
0,
0,
0,
0,
0,
0,
0,
0,
0,
0,
0,
0,
0,
0,
0,
0,
0,
0,
0,
0,
0,
0,
0,
0,
0,
0,
0,
0,
0,
0,
0,
0,
0,
0,
0,
0,
0,
0,
0,
0,
0,
0,
0,
0,
0,
0,
0,
0,
0,
0,
0,
0,
0,
0,
#ENDOFDATA   :

File: SPI MM2 SPI Olivine[7][4].msa
#FORMAT      : EMSA/MAS Spectral Data File
#VERSION     : 1.0
#TITLE       : SPI MM2 SPI Olivine[7][all]
#DATE        : 13-MAR-2025
#TIME        : 09:53
#OWNER       : Unknown
#NPOINTS     : 4096
#NCOLUMNS    : 1
#XUNITS      : eV
#YUNITS      : counts
#DATATYPE    : Y
#XPERCHAN    : 9.99778
#OFFSET      : 1.69135
#BEAMKV      : 20
#SIGNALTYPE  : EDS
#ELEVANGLE   : 35
#AZIMANGLE   : 0
#LIVETIME    : 239.603
#REALTIME    : 255.725
#PROBECUR    : 1.02627
#TAUWIND     : 0
#TDEADLYR    : 0
#TACTLYR     : 0.045
#TALWIND     : 0.025
#CHOFFSET    : 0.0
#XLABEL      : Energy (eV)
#YLABEL      : Counts
#XPOSITION   : -3.1707
#YPOSITION   : -2.0927
#ZPOSITION   : 31.03509
#EDSDET      : SD
##SPECIMEN   : SPI MM2 SPI Olivine[7][all]
##D2STDCMP   : SPI Olivine,(O:43.96),(Mg:30.26),(Si:19.14),(Mn:0.089),(Fe:6.35),(Ni:0.278),5.0
##DET_HASH   : 12273538-fd48-a23f-0a19-f1e6fa85caef
##CALIB_HASH : 6abaa72c-aa41-8738-0be9-f592914732f3
##WORKING    : 15.0 mm
##DET_NAME   : EDAX All
##DET_MODE   : MediumLE
#SPECTRUM    :
20,
182,
8718,
6801,
68023,
7202,
3221,
3540,
5737,
239676,
2799,
3254,
39350,
19571,
2258,
2255,
2637,
2330,
2699,
2282,
2228,
2432,
2236,
2217,
1971,
2062,
1922,
1832,
1825,
1663,
1678,
1623,
1495,
1456,
1341,
1339,
1361,
1390,
1273,
1219,
1126,
1157,
1270,
1021,
1039,
3627,
9357,
980,
873,
944,
1824,
1309,
806,
999,
864,
735,
642,
621,
620,
637,
572,
552,
534,
558,
543,
500,
453,
475,
418,
403,
416,
414,
333,
392,
345,
308,
337,
302,
306,
276,
254,
234,
241,
238,
246,
228,
217,
194,
189,
207,
176,
174,
161,
181,
152,
150,
140,
120,
102,
117,
125,
126,
99,
71,
83,
92,
70,
73,
67,
75,
48,
57,
57,
55,
48,
41,
36,
45,
33,
44,
27,
31,
30,
24,
30,
12,
23,
17,
21,
20,
12,
12,
5,
11,
5,
11,
6,
9,
3,
6,
3,
0,
0,
1,
0,
0,
0,
0,
0,
0,
0,
0,
0,
0,
0,
0,
0,
0,
0,
0,
0,
0,
0,
0,
0,
0,
0,
0,
0,
0,
0,
0,
0,
0,
0,
0,
0,
0,
0,
0,
0,
0,
0,
0,
1,
0,
0,
0,
0,
0,
0,
0,
0,
0,
0,
0,
0,
0,
0,
0,
0,
0,
0,
0,
0,
0,
0,
0,
0,
0,
0,
0,
0,
0,
0,
0,
0,
0,
0,
0,
0,
0,
0,
0,
0,
0,
0,
0,
0,
0,
0,
0,
0,
0,
0,
0,
0,
0,
0,
0,
0,
0,
0,
0,
0,
0,
0,
0,
0,
0,
0,
0,
0,
0,
0,
0,
0,
0,
0,
0,
0,
0,
0,
0,
0,
0,
0,
0,
0,
0,
0,
0,
0,
0,
0,
0,
0,
0,
0,
0,
0,
0,
0,
0,
0,
0,
0,
0,
0,
0,
0,
0,
0,
0,
#ENDOFDATA   :

File: SPI MM2 SPI Orthoclaise[0][4].msa
#FORMAT      : EMSA/MAS Spectral Data File
#VERSION     : 1.0
#TITLE       : SPI MM2 SPI Orthoclaise[0][all]
#DATE        : 13-MAR-2025
#TIME        : 10:22
#OWNER       : Unknown
#NPOINTS     : 4096
#NCOLUMNS    : 1
#XUNITS      : eV
#YUNITS      : counts
#DATATYPE    : Y
#XPERCHAN    : 9.99778
#OFFSET      : 1.69135
#BEAMKV      : 20
#SIGNALTYPE  : EDS
#ELEVANGLE   : 35
#AZIMANGLE   : 0
#LIVETIME    : 239.823
#REALTIME    : 255.919
#PROBECUR    : 1.02606
#TAUWIND     : 0
#TDEADLYR    : 0
#TACTLYR     : 0.045
#TALWIND     : 0.025
#CHOFFSET    : 0.0
#XLABEL      : Energy (eV)
#YLABEL      : Counts
#XPOSITION   : 6.16449
#YPOSITION   : 0.1297
#ZPOSITION   : 31.0351
#EDSDET      : SD
##SPECIMEN   : SPI MM2 SPI Orthoclaise[0][all]
##D2STDCMP   : SPI Orthoclaise,(O:45.86),(Na:0.67),(Al:8.85),(Si:30.29),(K:12.85),(Fe:1.4),(Ba:0.04),5.0
##DET_HASH   : 12273538-fd48-a23f-0a19-f1e6fa85caef
##CALIB_HASH : 6abaa72c-aa41-8738-0be9-f592914732f3
##WORKING    : 15.0 mm
##DET_NAME   : EDAX All
##DET_MODE   : MediumLE
#SPECTRUM    :
24,
182,
9345,
4359,
42255,
3667,
2617,
3478,
3849,
4523,
9281,
30176,
73799,
34873,
2567,
2361,
2965,
2489,
2505,
2438,
2490,
2453,
2466,
9983,
41437,
3725,
6195,
1763,
1695,
1665,
1678,
1557,
1586,
1449,
1430,
1367,
1544,
1362,
1277,
1239,
1185,
1183,
1136,
1099,
1032,
1891,
3617,
1001,
946,
919,
1176,
967,
798,
790,
728,
715,
665,
749,
630,
607,
548,
611,
608,
585,
541,
489,
512,
458,
483,
404,
415,
447,
382,
393,
388,
353,
358,
365,
324,
293,
305,
280,
251,
248,
243,
246,
219,
229,
227,
200,
178,
186,
152,
160,
177,
147,
171,
157,
105,
126,
126,
121,
87,
98,
91,
81,
100,
85,
73,
66,
74,
58,
64,
56,
57,
55,
51,
45,
45,
28,
29,
32,
28,
22,
32,
27,
25,
23,
14,
16,
19,
10,
4,
10,
8,
9,
5,
5,
2,
7,
3,
3,
2,
0,
0,
0,
1,
0,
0,
0,
0,
1,
0,
0,
0,
0,
1,
0,
0,
1,
0,
0,
0,
0,
0,
0,
0,
0,
0,
0,
0,
0,
0,
0,
0,
0,
0,
0,
0,
0,
0,
0,
0,
0,
0,
0,
0,
0,
0,
0,
0,
0,
0,
0,
0,
0,
0,
0,
0,
0,
0,
0,
0,
0,
0,
0,
0,
0,
0,
0,
0,
0,
0,
0,
0,
0,
0,
0,
0,
0,
0,
0,
0,
0,
0,
0,
0,
0,
0,
0,
0,
0,
0,
0,
0,
0,
0,
0,
0,
0,
0,
0,
0,
0,
0,
0,
0,
0,
0,
0,
0,
0,
0,
0,
0,
0,
0,
0,
0,
0,
0,
0,
0,
0,
0,
0,
0,
0,
0,
0,
0,
0,
0,
0,
0,
0,
0,
0,
0,
0,
0,
0,
0,
0,
0,
0,
0,
0,
0,
0,
0,
0,
0,
0,
#ENDOFDATA   :

File: SPI MM2 SPI Orthoclaise[1][4].msa
#FORMAT      : EMSA/MAS Spectral Data File
#VERSION     : 1.0
#TITLE       : SPI MM2 SPI Orthoclaise[1][all]
#DATE        : 13-MAR-2025
#TIME        : 10:24
#OWNER       : Unknown
#NPOINTS     : 4096
#NCOLUMNS    : 1
#XUNITS      : eV
#YUNITS      : counts
#DATATYPE    : Y
#XPERCHAN    : 9.99778
#OFFSET      : 1.69135
#BEAMKV      : 20
#SIGNALTYPE  : EDS
#ELEVANGLE   : 35
#AZIMANGLE   : 0
#LIVETIME    : 239.809
#REALTIME    : 255.905
#PROBECUR    : 1.02606
#TAUWIND     : 0
#TDEADLYR    : 0
#TACTLYR     : 0.045
#TALWIND     : 0.025
#CHOFFSET    : 0.0
#XLABEL      : Energy (eV)
#YLABEL      : Counts
#XPOSITION   : 6.11682
#YPOSITION   : 0.10717
#ZPOSITION   : 31.0351
#EDSDET      : SD
##SPECIMEN   : SPI MM2 SPI Orthoclaise[1][all]
##D2STDCMP   : SPI Orthoclaise,(O:45.86),(Na:0.67),(Al:8.85),(Si:30.29),(K:12.85),(Fe:1.4),(Ba:0.04),5.0
##DET_HASH   : 12273538-fd48-a23f-0a19-f1e6fa85caef
##CALIB_HASH : 6abaa72c-aa41-8738-0be9-f592914732f3
##WORKING    : 15.0 mm
##DET_NAME   : EDAX All
##DET_MODE   : MediumLE
#SPECTRUM    :
24,
169,
9435,
4491,
42068,
3684,
2699,
3387,
3854,
4318,
9171,
30153,
73802,
34983,
2498,
2415,
2920,
2431,
2551,
2371,
2517,
2359,
2393,
10025,
40987,
3792,
6248,
1884,
1727,
1702,
1527,
1530,
1636,
1446,
1438,
1456,
1600,
1286,
1336,
1219,
1146,
1101,
1122,
1124,
1038,
1859,
3701,
945,
933,
944,
1151,
968,
799,
807,
735,
728,
713,
696,
660,
633,
628,
639,
582,
574,
562,
485,
527,
480,
443,
442,
444,
431,
408,
393,
367,
390,
351,
289,
328,
348,
290,
299,
276,
286,
248,
243,
215,
213,
204,
193,
206,
172,
208,
181,
179,
154,
138,
143,
130,
126,
114,
93,
118,
125,
114,
82,
94,
88,
70,
63,
60,
58,
66,
60,
68,
54,
38,
37,
32,
41,
36,
35,
29,
25,
27,
28,
30,
17,
11,
12,
16,
13,
10,
9,
4,
13,
3,
7,
3,
1,
1,
0,
0,
0,
0,
0,
0,
0,
0,
1,
0,
0,
0,
0,
0,
0,
0,
0,
0,
0,
0,
0,
0,
0,
0,
0,
0,
0,
0,
0,
0,
0,
0,
0,
0,
0,
0,
0,
0,
0,
0,
0,
0,
0,
0,
0,
0,
0,
0,
0,
0,
0,
0,
0,
0,
0,
0,
0,
0,
0,
0,
0,
0,
0,
0,
0,
0,
0,
0,
0,
0,
0,
0,
0,
0,
0,
0,
0,
0,
0,
0,
0,
0,
0,
0,
0,
0,
0,
0,
0,
0,
0,
0,
0,
0,
0,
0,
0,
0,
0,
0,
0,
0,
0,
0,
0,
0,
0,
0,
0,
0,
0,
0,
0,
0,
0,
0,
0,
0,
0,
0,
0,
0,
0,
0,
0,
0,
0,
0,
0,
0,
0,
0,
0,
0,
0,
0,
0,
0,
0,
0,
0,
0,
0,
0,
0,
0,
0,
0,
0,
0,
0,
0,
0,
#ENDOFDATA   :

File: SPI MM2 SPI Orthoclaise[2][4].msa
#FORMAT      : EMSA/MAS Spectral Data File
#VERSION     : 1.0
#TITLE       : SPI MM2 SPI Orthoclaise[2][all]
#DATE        : 13-MAR-2025
#TIME        : 10:25
#OWNER       : Unknown
#NPOINTS     : 4096
#NCOLUMNS    : 1
#XUNITS      : eV
#YUNITS      : counts
#DATATYPE    : Y
#XPERCHAN    : 9.99778
#OFFSET      : 1.69135
#BEAMKV      : 20
#SIGNALTYPE  : EDS
#ELEVANGLE   : 35
#AZIMANGLE   : 0
#LIVETIME    : 239.887
#REALTIME    : 255.911
#PROBECUR    : 1.02606
#TAUWIND     : 0
#TDEADLYR    : 0
#TACTLYR     : 0.045
#TALWIND     : 0.025
#CHOFFSET    : 0.0
#XLABEL      : Energy (eV)
#YLABEL      : Counts
#XPOSITION   : 6.18937
#YPOSITION   : 0.18938
#ZPOSITION   : 31.0351
#EDSDET      : SD
##SPECIMEN   : SPI MM2 SPI Orthoclaise[2][all]
##D2STDCMP   : SPI Orthoclaise,(O:45.86),(Na:0.67),(Al:8.85),(Si:30.29),(K:12.85),(Fe:1.4),(Ba:0.04),5.0
##DET_HASH   : 12273538-fd48-a23f-0a19-f1e6fa85caef
##CALIB_HASH : 6abaa72c-aa41-8738-0be9-f592914732f3
##WORKING    : 15.0 mm
##DET_NAME   : EDAX All
##DET_MODE   : MediumLE
#SPECTRUM    :
26,
193,
9695,
4387,
41918,
3734,
2648,
3395,
3796,
4437,
9137,
30191,
73361,
34240,
2456,
2467,
2923,
2481,
2551,
2498,
2416,
2437,
2297,
9865,
41082,
3872,
6333,
1825,
1734,
1656,
1612,
1570,
1592,
1607,
1502,
1422,
1509,
1275,
1312,
1272,
1211,
1149,
1156,
1076,
1054,
1865,
3704,
931,
912,
921,
1137,
947,
756,
768,
762,
721,
698,
682,
647,
640,
623,
561,
600,
533,
509,
504,
515,
529,
470,
417,
429,
427,
420,
405,
378,
352,
321,
351,
298,
303,
298,
309,
272,
279,
252,
234,
227,
232,
211,
200,
172,
190,
174,
154,
164,
153,
146,
154,
144,
103,
138,
122,
117,
96,
105,
93,
87,
89,
91,
65,
67,
52,
54,
56,
54,
52,
43,
45,
28,
37,
37,
22,
29,
21,
16,
14,
26,
13,
19,
21,
8,
11,
9,
6,
18,
7,
6,
5,
0,
1,
2,
2,
1,
0,
0,
0,
0,
0,
0,
1,
0,
0,
1,
0,
0,
0,
0,
0,
0,
0,
0,
0,
0,
0,
0,
0,
0,
0,
0,
0,
0,
0,
0,
0,
0,
0,
0,
0,
0,
0,
0,
0,
0,
0,
0,
0,
0,
0,
0,
0,
0,
0,
0,
0,
0,
0,
0,
0,
0,
0,
0,
0,
0,
0,
0,
0,
0,
0,
0,
0,
0,
0,
0,
0,
0,
0,
0,
0,
0,
0,
0,
0,
0,
0,
0,
0,
0,
0,
0,
0,
0,
0,
0,
0,
0,
0,
0,
0,
0,
0,
0,
0,
0,
0,
0,
0,
0,
0,
0,
0,
0,
0,
0,
0,
0,
0,
0,
0,
0,
0,
0,
0,
0,
0,
0,
0,
0,
0,
0,
0,
0,
0,
0,
0,
0,
0,
0,
0,
0,
0,
0,
0,
0,
0,
0,
0,
0,
0,
0,
0,
0,
0,
0,
0,
#ENDOFDATA   :

File: SPI MM2 SPI Orthoclaise[3][4].msa
#FORMAT      : EMSA/MAS Spectral Data File
#VERSION     : 1.0
#TITLE       : SPI MM2 SPI Orthoclaise[3][all]
#DATE        : 13-MAR-2025
#TIME        : 10:26
#OWNER       : Unknown
#NPOINTS     : 4096
#NCOLUMNS    : 1
#XUNITS      : eV
#YUNITS      : counts
#DATATYPE    : Y
#XPERCHAN    : 9.99778
#OFFSET      : 1.69135
#BEAMKV      : 20
#SIGNALTYPE  : EDS
#ELEVANGLE   : 35
#AZIMANGLE   : 0
#LIVETIME    : 239.856
#REALTIME    : 255.978
#PROBECUR    : 1.02606
#TAUWIND     : 0
#TDEADLYR    : 0
#TACTLYR     : 0.045
#TALWIND     : 0.025
#CHOFFSET    : 0.0
#XLABEL      : Energy (eV)
#YLABEL      : Counts
#XPOSITION   : 6.16898
#YPOSITION   : 0.18017
#ZPOSITION   : 31.0351
#EDSDET      : SD
##SPECIMEN   : SPI MM2 SPI Orthoclaise[3][all]
##D2STDCMP   : SPI Orthoclaise,(O:45.86),(Na:0.67),(Al:8.85),(Si:30.29),(K:12.85),(Fe:1.4),(Ba:0.04),5.0
##DET_HASH   : 12273538-fd48-a23f-0a19-f1e6fa85caef
##CALIB_HASH : 6abaa72c-aa41-8738-0be9-f592914732f3
##WORKING    : 15.0 mm
##DET_NAME   : EDAX All
##DET_MODE   : MediumLE
#SPECTRUM    :
33,
162,
9428,
4348,
42315,
3832,
2651,
3333,
3748,
4481,
9216,
30401,
74389,
34457,
2474,
2429,
2955,
2462,
2473,
2455,
2410,
2378,
2328,
9976,
41307,
3887,
6338,
1852,
1725,
1673,
1576,
1569,
1504,
1500,
1374,
1407,
1510,
1379,
1245,
1263,
1158,
1127,
1138,
1083,
1033,
1833,
3656,
951,
991,
882,
1137,
939,
773,
800,
724,
718,
646,
647,
677,
595,
605,
594,
572,
556,
512,
477,
456,
485,
472,
420,
430,
406,
421,
371,
355,
332,
345,
346,
322,
315,
276,
291,
258,
235,
248,
230,
226,
209,
237,
208,
190,
183,
166,
182,
138,
139,
146,
136,
142,
130,
110,
120,
104,
87,
88,
94,
92,
87,
64,
65,
79,
61,
63,
55,
53,
48,
50,
49,
46,
49,
35,
34,
33,
29,
26,
23,
15,
19,
18,
15,
9,
12,
9,
9,
10,
10,
2,
7,
3,
2,
0,
5,
1,
0,
0,
1,
0,
0,
1,
0,
0,
1,
0,
0,
0,
1,
0,
0,
0,
0,
0,
0,
0,
0,
0,
0,
0,
0,
0,
0,
0,
0,
0,
0,
0,
0,
0,
0,
0,
0,
0,
0,
0,
0,
0,
0,
0,
0,
0,
0,
0,
0,
0,
0,
0,
0,
0,
0,
0,
0,
0,
0,
0,
0,
0,
0,
0,
0,
0,
0,
0,
0,
0,
0,
0,
0,
0,
0,
0,
0,
0,
0,
0,
0,
0,
0,
0,
0,
0,
0,
0,
0,
0,
0,
0,
0,
0,
0,
0,
0,
0,
0,
0,
0,
0,
0,
0,
0,
0,
0,
0,
0,
0,
0,
0,
0,
0,
0,
0,
0,
0,
0,
0,
0,
0,
0,
0,
0,
0,
0,
0,
0,
0,
0,
0,
0,
0,
0,
0,
0,
0,
0,
0,
0,
0,
0,
0,
0,
0,
0,
0,
0,
0,
0,
#ENDOFDATA   :

File: SPI MM2 SPI Orthoclaise[4][4].msa
#FORMAT      : EMSA/MAS Spectral Data File
#VERSION     : 1.0
#TITLE       : SPI MM2 SPI Orthoclaise[4][all]
#DATE        : 13-MAR-2025
#TIME        : 10:27
#OWNER       : Unknown
#NPOINTS     : 4096
#NCOLUMNS    : 1
#XUNITS      : eV
#YUNITS      : counts
#DATATYPE    : Y
#XPERCHAN    : 9.99778
#OFFSET      : 1.69135
#BEAMKV      : 20
#SIGNALTYPE  : EDS
#ELEVANGLE   : 35
#AZIMANGLE   : 0
#LIVETIME    : 239.868
#REALTIME    : 255.97
#PROBECUR    : 1.02606
#TAUWIND     : 0
#TDEADLYR    : 0
#TACTLYR     : 0.045
#TALWIND     : 0.025
#CHOFFSET    : 0.0
#XLABEL      : Energy (eV)
#YLABEL      : Counts
#XPOSITION   : 6.16166
#YPOSITION   : 0.1255
#ZPOSITION   : 31.0351
#EDSDET      : SD
##SPECIMEN   : SPI MM2 SPI Orthoclaise[4][all]
##D2STDCMP   : SPI Orthoclaise,(O:45.86),(Na:0.67),(Al:8.85),(Si:30.29),(K:12.85),(Fe:1.4),(Ba:0.04),5.0
##DET_HASH   : 12273538-fd48-a23f-0a19-f1e6fa85caef
##CALIB_HASH : 6abaa72c-aa41-8738-0be9-f592914732f3
##WORKING    : 15.0 mm
##DET_NAME   : EDAX All
##DET_MODE   : MediumLE
#SPECTRUM    :
23,
196,
9360,
4350,
42530,
3574,
2641,
3326,
3756,
4357,
9291,
30165,
74468,
34791,
2466,
2459,
2999,
2513,
2490,
2483,
2321,
2420,
2299,
9957,
41149,
3750,
6243,
1859,
1727,
1687,
1649,
1510,
1626,
1503,
1432,
1509,
1524,
1288,
1360,
1220,
1198,
1049,
1105,
1171,
1054,
1820,
3631,
967,
849,
943,
1230,
920,
770,
778,
713,
740,
720,
710,
653,
706,
560,
597,
536,
538,
520,
504,
516,
487,
480,
408,
431,
411,
435,
386,
378,
370,
352,
338,
330,
306,
327,
270,
245,
277,
267,
250,
211,
230,
198,
177,
207,
187,
186,
155,
154,
159,
146,
126,
123,
114,
109,
104,
120,
84,
91,
84,
81,
81,
87,
81,
74,
58,
49,
51,
53,
47,
48,
28,
31,
39,
18,
31,
37,
35,
24,
23,
21,
31,
25,
16,
16,
12,
19,
12,
11,
7,
3,
3,
5,
6,
2,
1,
3,
0,
0,
0,
0,
0,
1,
1,
1,
0,
0,
0,
0,
0,
0,
0,
0,
0,
0,
0,
0,
0,
0,
0,
0,
0,
0,
0,
0,
0,
0,
0,
0,
0,
0,
0,
0,
0,
0,
0,
0,
0,
0,
0,
0,
0,
0,
0,
0,
0,
0,
0,
0,
0,
0,
0,
0,
0,
0,
0,
0,
0,
0,
0,
0,
0,
0,
0,
0,
0,
0,
0,
0,
0,
0,
0,
0,
0,
0,
0,
0,
0,
0,
0,
0,
0,
0,
0,
0,
0,
0,
0,
0,
0,
0,
0,
0,
0,
0,
0,
0,
0,
0,
0,
0,
0,
0,
0,
0,
0,
0,
0,
0,
0,
0,
0,
0,
0,
0,
0,
0,
0,
0,
0,
0,
0,
0,
0,
0,
0,
0,
0,
0,
0,
0,
0,
0,
0,
0,
0,
0,
0,
0,
0,
0,
0,
0,
0,
0,
0,
0,
0,
#ENDOFDATA   :

File: SPI MM2 SPI Orthoclaise[5][4].msa
#FORMAT      : EMSA/MAS Spectral Data File
#VERSION     : 1.0
#TITLE       : SPI MM2 SPI Orthoclaise[5][all]
#DATE        : 13-MAR-2025
#TIME        : 10:28
#OWNER       : Unknown
#NPOINTS     : 4096
#NCOLUMNS    : 1
#XUNITS      : eV
#YUNITS      : counts
#DATATYPE    : Y
#XPERCHAN    : 9.99778
#OFFSET      : 1.69135
#BEAMKV      : 20
#SIGNALTYPE  : EDS
#ELEVANGLE   : 35
#AZIMANGLE   : 0
#LIVETIME    : 239.858
#REALTIME    : 255.973
#PROBECUR    : 1.02606
#TAUWIND     : 0
#TDEADLYR    : 0
#TACTLYR     : 0.045
#TALWIND     : 0.025
#CHOFFSET    : 0.0
#XLABEL      : Energy (eV)
#YLABEL      : Counts
#XPOSITION   : 6.12979
#YPOSITION   : 0.17989
#ZPOSITION   : 31.0351
#EDSDET      : SD
##SPECIMEN   : SPI MM2 SPI Orthoclaise[5][all]
##D2STDCMP   : SPI Orthoclaise,(O:45.86),(Na:0.67),(Al:8.85),(Si:30.29),(K:12.85),(Fe:1.4),(Ba:0.04),5.0
##DET_HASH   : 12273538-fd48-a23f-0a19-f1e6fa85caef
##CALIB_HASH : 6abaa72c-aa41-8738-0be9-f592914732f3
##WORKING    : 15.0 mm
##DET_NAME   : EDAX All
##DET_MODE   : MediumLE
#SPECTRUM    :
22,
188,
9325,
4390,
42250,
3662,
2580,
3334,
3842,
4365,
9191,
30293,
74127,
34593,
2533,
2362,
2831,
2539,
2479,
2503,
2370,
2437,
2321,
10056,
41020,
3791,
6138,
1832,
1754,
1640,
1597,
1528,
1694,
1549,
1444,
1439,
1501,
1292,
1307,
1200,
1201,
1112,
1156,
1146,
1050,
1813,
3661,
982,
936,
862,
1208,
959,
750,
786,
773,
760,
711,
680,
634,
603,
604,
573,
597,
563,
540,
534,
462,
441,
481,
456,
438,
409,
445,
384,
360,
384,
328,
319,
335,
300,
320,
292,
274,
266,
252,
230,
210,
242,
222,
210,
203,
184,
160,
166,
148,
145,
152,
153,
139,
137,
111,
97,
110,
87,
91,
78,
94,
77,
79,
70,
74,
71,
63,
66,
45,
44,
46,
45,
37,
33,
39,
34,
27,
27,
19,
38,
16,
16,
19,
18,
11,
12,
4,
11,
10,
6,
2,
7,
3,
2,
2,
1,
0,
0,
0,
0,
0,
0,
0,
0,
1,
0,
0,
0,
0,
0,
0,
0,
0,
0,
0,
0,
0,
0,
0,
0,
0,
0,
0,
0,
0,
0,
0,
0,
0,
0,
0,
0,
0,
0,
0,
0,
0,
0,
0,
0,
0,
0,
0,
0,
0,
0,
0,
0,
0,
0,
0,
0,
0,
0,
0,
0,
0,
0,
0,
0,
0,
0,
0,
0,
0,
0,
0,
0,
0,
0,
0,
0,
0,
0,
0,
0,
0,
0,
0,
0,
0,
0,
0,
0,
0,
0,
0,
0,
0,
0,
0,
0,
0,
0,
0,
0,
0,
0,
0,
0,
0,
0,
0,
0,
0,
0,
0,
0,
0,
0,
0,
0,
0,
0,
0,
0,
0,
0,
0,
0,
0,
0,
0,
0,
0,
0,
0,
0,
0,
0,
0,
0,
0,
0,
0,
0,
0,
0,
0,
0,
0,
0,
0,
0,
0,
0,
0,
0,
#ENDOFDATA   :

File: SPI MM2 SPI Orthoclaise[6][4].msa
#FORMAT      : EMSA/MAS Spectral Data File
#VERSION     : 1.0
#TITLE       : SPI MM2 SPI Orthoclaise[6][all]
#DATE        : 13-MAR-2025
#TIME        : 10:29
#OWNER       : Unknown
#NPOINTS     : 4096
#NCOLUMNS    : 1
#XUNITS      : eV
#YUNITS      : counts
#DATATYPE    : Y
#XPERCHAN    : 9.99778
#OFFSET      : 1.69135
#BEAMKV      : 20
#SIGNALTYPE  : EDS
#ELEVANGLE   : 35
#AZIMANGLE   : 0
#LIVETIME    : 239.869
#REALTIME    : 255.98
#PROBECUR    : 1.02606
#TAUWIND     : 0
#TDEADLYR    : 0
#TACTLYR     : 0.045
#TALWIND     : 0.025
#CHOFFSET    : 0.0
#XLABEL      : Energy (eV)
#YLABEL      : Counts
#XPOSITION   : 6.12003
#YPOSITION   : 0.12852
#ZPOSITION   : 31.0351
#EDSDET      : SD
##SPECIMEN   : SPI MM2 SPI Orthoclaise[6][all]
##D2STDCMP   : SPI Orthoclaise,(O:45.86),(Na:0.67),(Al:8.85),(Si:30.29),(K:12.85),(Fe:1.4),(Ba:0.04),5.0
##DET_HASH   : 12273538-fd48-a23f-0a19-f1e6fa85caef
##CALIB_HASH : 6abaa72c-aa41-8738-0be9-f592914732f3
##WORKING    : 15.0 mm
##DET_NAME   : EDAX All
##DET_MODE   : MediumLE
#SPECTRUM    :
28,
181,
9386,
4471,
41991,
3674,
2603,
3390,
3780,
4442,
9350,
30172,
73886,
34803,
2575,
2459,
2885,
2501,
2349,
2530,
2418,
2436,
2322,
9879,
41037,
3722,
6186,
1723,
1750,
1707,
1628,
1561,
1542,
1504,
1488,
1443,
1524,
1364,
1289,
1242,
1164,
1169,
1124,
1105,
1002,
1752,
3593,
977,
945,
847,
1129,
1017,
764,
830,
741,
697,
675,
659,
689,
637,
623,
572,
572,
547,
565,
521,
516,
497,
444,
480,
443,
407,
411,
357,
371,
388,
320,
307,
309,
315,
301,
258,
265,
245,
236,
244,
235,
227,
238,
207,
201,
174,
170,
154,
166,
165,
147,
125,
146,
127,
120,
118,
121,
74,
89,
84,
100,
77,
70,
82,
61,
62,
67,
56,
56,
56,
40,
36,
50,
33,
46,
23,
32,
23,
15,
21,
21,
12,
22,
20,
19,
14,
10,
16,
9,
7,
6,
6,
9,
5,
3,
0,
2,
1,
0,
0,
1,
1,
0,
0,
0,
0,
0,
0,
0,
0,
0,
0,
0,
0,
0,
0,
1,
0,
0,
0,
0,
0,
0,
0,
0,
0,
0,
0,
0,
0,
0,
0,
0,
0,
0,
0,
1,
0,
0,
0,
0,
0,
0,
0,
0,
0,
0,
0,
0,
0,
0,
0,
0,
0,
0,
0,
0,
0,
0,
0,
0,
0,
0,
0,
0,
0,
0,
0,
0,
0,
0,
0,
0,
0,
0,
0,
0,
0,
0,
0,
0,
0,
0,
0,
0,
0,
0,
0,
0,
0,
0,
0,
0,
0,
0,
0,
0,
0,
0,
0,
0,
0,
0,
0,
0,
0,
0,
0,
0,
0,
0,
0,
0,
0,
0,
0,
0,
0,
0,
0,
0,
0,
0,
0,
0,
0,
0,
0,
0,
0,
0,
0,
0,
0,
0,
0,
0,
0,
0,
0,
0,
0,
0,
0,
0,
0,
0,
0,
#ENDOFDATA   :

File: SPI MM2 SPI Orthoclaise[7][4].msa
#FORMAT      : EMSA/MAS Spectral Data File
#VERSION     : 1.0
#TITLE       : SPI MM2 SPI Orthoclaise[7][all]
#DATE        : 13-MAR-2025
#TIME        : 10:30
#OWNER       : Unknown
#NPOINTS     : 4096
#NCOLUMNS    : 1
#XUNITS      : eV
#YUNITS      : counts
#DATATYPE    : Y
#XPERCHAN    : 9.99778
#OFFSET      : 1.69135
#BEAMKV      : 20
#SIGNALTYPE  : EDS
#ELEVANGLE   : 35
#AZIMANGLE   : 0
#LIVETIME    : 239.868
#REALTIME    : 255.976
#PROBECUR    : 1.02606
#TAUWIND     : 0
#TDEADLYR    : 0
#TACTLYR     : 0.045
#TALWIND     : 0.025
#CHOFFSET    : 0.0
#XLABEL      : Energy (eV)
#YLABEL      : Counts
#XPOSITION   : 6.17364
#YPOSITION   : 0.07022
#ZPOSITION   : 31.0351
#EDSDET      : SD
##SPECIMEN   : SPI MM2 SPI Orthoclaise[7][all]
##D2STDCMP   : SPI Orthoclaise,(O:45.86),(Na:0.67),(Al:8.85),(Si:30.29),(K:12.85),(Fe:1.4),(Ba:0.04),5.0
##DET_HASH   : 12273538-fd48-a23f-0a19-f1e6fa85caef
##CALIB_HASH : 6abaa72c-aa41-8738-0be9-f592914732f3
##WORKING    : 15.0 mm
##DET_NAME   : EDAX All
##DET_MODE   : MediumLE
#SPECTRUM    :
26,
188,
9410,
4393,
42076,
3675,
2579,
3415,
3845,
4408,
9281,
30263,
73755,
34768,
2517,
2504,
2975,
2571,
2371,
2496,
2382,
2331,
2349,
10027,
41009,
3768,
6334,
1858,
1719,
1665,
1593,
1544,
1546,
1492,
1505,
1356,
1491,
1301,
1301,
1261,
1123,
1177,
1036,
1044,
1109,
1854,
3760,
985,
979,
890,
1154,
945,
813,
812,
774,
753,
718,
687,
670,
603,
588,
588,
551,
600,
543,
501,
507,
512,
437,
473,
465,
423,
399,
381,
364,
322,
354,
379,
311,
329,
282,
305,
288,
254,
263,
240,
232,
232,
228,
200,
180,
199,
178,
171,
174,
123,
161,
135,
122,
155,
130,
123,
118,
105,
97,
103,
70,
92,
73,
65,
69,
56,
58,
45,
53,
51,
34,
63,
36,
24,
45,
31,
32,
20,
24,
23,
25,
26,
14,
18,
11,
16,
9,
3,
12,
8,
12,
8,
4,
3,
2,
3,
1,
0,
0,
1,
0,
0,
0,
1,
0,
0,
1,
1,
0,
0,
0,
0,
0,
0,
0,
0,
0,
0,
0,
0,
0,
0,
0,
0,
0,
0,
0,
0,
0,
0,
0,
0,
0,
0,
0,
0,
0,
0,
0,
0,
0,
0,
0,
1,
0,
0,
0,
0,
0,
0,
0,
0,
0,
0,
0,
0,
0,
0,
0,
0,
0,
0,
0,
0,
0,
0,
0,
0,
0,
0,
0,
0,
0,
0,
0,
0,
0,
0,
0,
0,
0,
0,
0,
0,
0,
0,
0,
0,
0,
0,
0,
0,
0,
0,
0,
0,
0,
0,
0,
0,
0,
0,
0,
0,
0,
0,
0,
0,
0,
0,
0,
0,
0,
0,
0,
0,
0,
0,
0,
0,
0,
0,
0,
0,
0,
0,
0,
0,
0,
0,
0,
0,
0,
0,
0,
0,
0,
0,
0,
0,
0,
0,
0,
0,
0,
0,
0,
0,
#ENDOFDATA   :

File: SPI MM2 SPI Pentlandite[0][4].msa
#FORMAT      : EMSA/MAS Spectral Data File
#VERSION     : 1.0
#TITLE       : SPI MM2 SPI Pentlandite[0][all]
#DATE        : 13-MAR-2025
#TIME        : 10:32
#OWNER       : Unknown
#NPOINTS     : 4096
#NCOLUMNS    : 1
#XUNITS      : eV
#YUNITS      : counts
#DATATYPE    : Y
#XPERCHAN    : 9.99778
#OFFSET      : 1.69135
#BEAMKV      : 20
#SIGNALTYPE  : EDS
#ELEVANGLE   : 35
#AZIMANGLE   : 0
#LIVETIME    : 240
#REALTIME    : 260.324
#PROBECUR    : 1.02606
#TAUWIND     : 0
#TDEADLYR    : 0
#TACTLYR     : 0.045
#TALWIND     : 0.025
#CHOFFSET    : 0.0
#XLABEL      : Energy (eV)
#YLABEL      : Counts
#XPOSITION   : 3.92101
#YPOSITION   : -0.32118
#ZPOSITION   : 31.0351
#EDSDET      : SD
##SPECIMEN   : SPI MM2 SPI Pentlandite[0][all]
##D2STDCMP   : SPI Pentlandite,(S:32.89),(Fe:30.88),(Co:0.43),(Ni:35.61)
##DET_HASH   : 12273538-fd48-a23f-0a19-f1e6fa85caef
##CALIB_HASH : 6abaa72c-aa41-8738-0be9-f592914732f3
##WORKING    : 15.0 mm
##DET_NAME   : EDAX All
##DET_MODE   : MediumLE
#SPECTRUM    :
27,
446,
11734,
3288,
13499,
50437,
63545,
3492,
3480,
4245,
4869,
5044,
5572,
5888,
5522,
5767,
62756,
48938,
10554,
3917,
3796,
3720,
3862,
3823,
3634,
3623,
3457,
3450,
3356,
3254,
3127,
3032,
3084,
3405,
2961,
2727,
2677,
2600,
2679,
2556,
2422,
2432,
2212,
2301,
2360,
17140,
50459,
2507,
1946,
2496,
7791,
4660,
2206,
35340,
17555,
1657,
1410,
1427,
2146,
7353,
1892,
1177,
1216,
1149,
1093,
1073,
1100,
1008,
971,
928,
1011,
916,
880,
834,
792,
814,
803,
738,
670,
670,
652,
630,
635,
574,
563,
577,
546,
518,
517,
470,
484,
450,
432,
402,
392,
373,
371,
317,
321,
357,
316,
301,
279,
256,
228,
238,
211,
244,
206,
169,
181,
161,
166,
153,
141,
114,
107,
106,
105,
95,
76,
91,
92,
85,
62,
60,
51,
60,
56,
37,
56,
42,
31,
28,
28,
29,
23,
16,
13,
10,
8,
4,
4,
0,
2,
2,
1,
1,
1,
1,
3,
2,
0,
2,
0,
0,
0,
1,
2,
2,
1,
2,
0,
0,
1,
1,
1,
0,
0,
2,
1,
0,
1,
0,
0,
0,
0,
0,
0,
1,
0,
1,
1,
1,
0,
0,
0,
0,
1,
0,
0,
1,
0,
0,
0,
0,
0,
0,
0,
0,
0,
0,
0,
0,
0,
0,
1,
0,
0,
0,
0,
0,
1,
0,
0,
0,
0,
0,
0,
0,
0,
1,
0,
0,
0,
0,
0,
0,
0,
0,
0,
0,
0,
0,
0,
0,
0,
0,
0,
0,
0,
0,
0,
0,
0,
0,
0,
0,
0,
0,
0,
0,
0,
0,
0,
0,
0,
0,
0,
0,
0,
0,
0,
0,
0,
0,
0,
0,
0,
0,
0,
0,
0,
0,
0,
0,
0,
0,
0,
0,
0,
0,
0,
0,
0,
0,
0,
0,
0,
0,
0,
0,
0,
0,
#ENDOFDATA   :