Folder: spex_quant/N132962/Quantification/20 keV/MMM2 (part 7)

File: SPI MM2 Sphodumene[4][4].msa
#FORMAT      : EMSA/MAS Spectral Data File
#VERSION     : 1.0
#TITLE       : SPI MM2 Sphodumene[4][all]
#DATE        : 13-MAR-2025
#TIME        : 13:12
#OWNER       : Unknown
#NPOINTS     : 4096
#NCOLUMNS    : 1
#XUNITS      : eV
#YUNITS      : counts
#DATATYPE    : Y
#XPERCHAN    : 9.99778
#OFFSET      : 1.69135
#BEAMKV      : 20
#SIGNALTYPE  : EDS
#ELEVANGLE   : 35
#AZIMANGLE   : 0
#LIVETIME    : 239.884
#REALTIME    : 255.844
#PROBECUR    : 1.0263
#TAUWIND     : 0
#TDEADLYR    : 0
#TACTLYR     : 0.045
#TALWIND     : 0.025
#CHOFFSET    : 0.0
#XLABEL      : Energy (eV)
#YLABEL      : Counts
#XPOSITION   : 3.54416
#YPOSITION   : 3.46006
#ZPOSITION   : 31.03511
#EDSDET      : SD
##SPECIMEN   : SPI MM2 Sphodumene[4][all]
##DET_HASH   : 12273538-fd48-a23f-0a19-f1e6fa85caef
##CALIB_HASH : 6abaa72c-aa41-8738-0be9-f592914732f3
##WORKING    : 15.0 mm
##DET_NAME   : EDAX All
##DET_MODE   : MediumLE
#SPECTRUM    :
26,
188,
8160,
6706,
71251,
1898,
2396,
3278,
3618,
4306,
12660,
48827,
69994,
32810,
2270,
1997,
2719,
2101,
1985,
2032,
2049,
2036,
1988,
2196,
1837,
2141,
1769,
1664,
1588,
1529,
1499,
1403,
1319,
1334,
1293,
1248,
1243,
1123,
1031,
1128,
1034,
996,
1047,
929,
962,
906,
928,
711,
734,
712,
718,
688,
653,
695,
629,
616,
595,
584,
570,
521,
485,
523,
455,
483,
448,
452,
450,
390,
402,
384,
360,
351,
327,
335,
320,
280,
298,
278,
273,
263,
244,
234,
258,
225,
227,
198,
195,
191,
157,
164,
189,
139,
153,
137,
112,
114,
121,
131,
110,
91,
82,
103,
82,
94,
64,
65,
52,
67,
49,
60,
47,
48,
50,
42,
39,
45,
46,
26,
38,
28,
31,
25,
27,
23,
16,
18,
18,
12,
14,
16,
7,
12,
14,
8,
8,
3,
6,
4,
5,
0,
1,
0,
2,
0,
1,
0,
0,
0,
0,
1,
0,
0,
0,
0,
0,
0,
0,
0,
0,
0,
0,
0,
0,
0,
0,
0,
0,
0,
0,
0,
0,
1,
0,
0,
0,
0,
0,
0,
0,
0,
0,
0,
0,
0,
0,
0,
0,
0,
0,
0,
0,
0,
0,
0,
0,
0,
0,
0,
0,
0,
0,
0,
0,
0,
0,
0,
0,
0,
0,
0,
0,
0,
0,
0,
0,
0,
0,
0,
0,
0,
0,
0,
0,
0,
0,
0,
0,
0,
0,
0,
0,
0,
0,
0,
0,
0,
0,
0,
0,
0,
0,
0,
0,
0,
0,
0,
0,
0,
0,
0,
0,
0,
0,
0,
0,
0,
0,
0,
0,
0,
0,
0,
0,
0,
0,
0,
0,
0,
0,
0,
0,
0,
0,
0,
0,
0,
0,
0,
0,
0,
0,
0,
0,
0,
0,
0,
0,
0,
0,
0,
0,
0,
0,
0,
#ENDOFDATA   :

File: SPI MM2 SPI Magnetite[0][4].msa
#FORMAT      : EMSA/MAS Spectral Data File
#VERSION     : 1.0
#TITLE       : SPI MM2 SPI Magnetite[0][all]
#DATE        : 13-MAR-2025
#TIME        : 09:17
#OWNER       : Unknown
#NPOINTS     : 4096
#NCOLUMNS    : 1
#XUNITS      : eV
#YUNITS      : counts
#DATATYPE    : Y
#XPERCHAN    : 9.99778
#OFFSET      : 1.69135
#BEAMKV      : 20
#SIGNALTYPE  : EDS
#ELEVANGLE   : 35
#AZIMANGLE   : 0
#LIVETIME    : 239.903
#REALTIME    : 256.872
#PROBECUR    : 1.02582
#TAUWIND     : 0
#TDEADLYR    : 0
#TACTLYR     : 0.045
#TALWIND     : 0.025
#CHOFFSET    : 0.0
#XLABEL      : Energy (eV)
#YLABEL      : Counts
#XPOSITION   : 3.902
#YPOSITION   : -4.178
#ZPOSITION   : 31.03509
#EDSDET      : SD
##SPECIMEN   : SPI MM2 SPI Magnetite[0][all]
##D2STDCMP   : SPI Magnetite,(O:27.53),(Si:0.01),(Mn:0.18),(Fe:71.88)
##DET_HASH   : 12273538-fd48-a23f-0a19-f1e6fa85caef
##CALIB_HASH : 6abaa72c-aa41-8738-0be9-f592914732f3
##WORKING    : 15.0 mm
##DET_NAME   : EDAX All
##DET_MODE   : MediumLE
#SPECTRUM    :
18,
290,
12007,
9433,
66290,
51849,
2419,
2628,
2832,
3434,
3835,
4404,
4697,
4796,
4215,
4358,
4453,
4449,
4418,
4183,
4139,
3993,
4058,
3846,
3638,
3503,
3442,
3325,
3267,
3091,
3026,
2894,
2923,
3167,
2762,
2696,
2589,
2447,
2494,
2405,
2258,
2132,
2568,
2200,
2440,
36425,
109610,
2987,
1855,
2401,
14492,
7794,
1243,
1240,
1273,
1175,
1203,
1068,
1102,
1107,
1016,
1018,
1017,
903,
995,
891,
849,
852,
861,
833,
683,
810,
749,
746,
726,
655,
622,
633,
596,
583,
609,
501,
540,
491,
508,
441,
465,
461,
431,
422,
367,
440,
383,
359,
324,
315,
327,
309,
277,
251,
238,
252,
213,
238,
178,
165,
190,
163,
158,
143,
159,
125,
111,
116,
117,
109,
90,
93,
89,
96,
90,
74,
76,
75,
62,
63,
60,
32,
47,
37,
36,
30,
25,
22,
14,
20,
11,
17,
11,
20,
6,
6,
4,
0,
2,
2,
0,
4,
1,
0,
1,
0,
1,
3,
0,
0,
1,
2,
0,
0,
0,
1,
0,
0,
1,
0,
0,
0,
0,
0,
0,
0,
0,
0,
0,
0,
1,
0,
0,
0,
0,
0,
0,
0,
0,
1,
0,
0,
0,
0,
0,
0,
0,
0,
0,
0,
0,
0,
0,
0,
0,
0,
0,
0,
0,
0,
0,
0,
0,
0,
0,
0,
0,
0,
0,
0,
0,
0,
0,
0,
0,
0,
0,
0,
0,
0,
0,
0,
0,
0,
0,
0,
0,
0,
0,
0,
0,
0,
0,
0,
0,
0,
0,
0,
0,
0,
0,
0,
0,
0,
0,
0,
0,
0,
0,
0,
0,
0,
0,
0,
0,
0,
0,
0,
0,
0,
0,
0,
0,
0,
0,
0,
0,
0,
0,
0,
0,
0,
0,
0,
0,
0,
0,
0,
0,
0,
0,
0,
0,
0,
0,
0,
0,
0,
#ENDOFDATA   :

File: SPI MM2 SPI Magnetite[1][4].msa
#FORMAT      : EMSA/MAS Spectral Data File
#VERSION     : 1.0
#TITLE       : SPI MM2 SPI Magnetite[1][all]
#DATE        : 13-MAR-2025
#TIME        : 09:19
#OWNER       : Unknown
#NPOINTS     : 4096
#NCOLUMNS    : 1
#XUNITS      : eV
#YUNITS      : counts
#DATATYPE    : Y
#XPERCHAN    : 9.99778
#OFFSET      : 1.69135
#BEAMKV      : 20
#SIGNALTYPE  : EDS
#ELEVANGLE   : 35
#AZIMANGLE   : 0
#LIVETIME    : 239.922
#REALTIME    : 256.873
#PROBECUR    : 1.02582
#TAUWIND     : 0
#TDEADLYR    : 0
#TACTLYR     : 0.045
#TALWIND     : 0.025
#CHOFFSET    : 0.0
#XLABEL      : Energy (eV)
#YLABEL      : Counts
#XPOSITION   : 3.82889
#YPOSITION   : -4.1503
#ZPOSITION   : 31.03509
#EDSDET      : SD
##SPECIMEN   : SPI MM2 SPI Magnetite[1][all]
##D2STDCMP   : SPI Magnetite,(O:27.53),(Si:0.01),(Mn:0.18),(Fe:71.88)
##DET_HASH   : 12273538-fd48-a23f-0a19-f1e6fa85caef
##CALIB_HASH : 6abaa72c-aa41-8738-0be9-f592914732f3
##WORKING    : 15.0 mm
##DET_NAME   : EDAX All
##DET_MODE   : MediumLE
#SPECTRUM    :
29,
291,
11819,
9493,
66535,
51760,
2318,
2387,
2795,
3415,
3838,
4159,
4724,
4849,
4317,
4462,
4450,
4541,
4426,
4362,
4146,
4079,
3799,
3716,
3702,
3575,
3324,
3251,
3094,
3106,
3072,
2943,
2878,
3236,
2721,
2622,
2615,
2435,
2472,
2296,
2239,
2168,
2590,
2167,
2408,
36163,
109427,
3036,
1915,
2435,
14332,
7905,
1218,
1285,
1286,
1249,
1174,
1128,
1149,
1059,
1067,
1078,
972,
929,
920,
917,
842,
833,
829,
804,
837,
753,
756,
698,
744,
687,
678,
647,
572,
583,
568,
538,
511,
522,
473,
426,
465,
414,
446,
398,
401,
465,
423,
317,
336,
332,
307,
281,
258,
239,
254,
269,
256,
224,
197,
191,
199,
170,
171,
169,
164,
174,
142,
121,
141,
96,
90,
84,
75,
84,
74,
77,
75,
81,
64,
49,
48,
45,
27,
36,
41,
31,
24,
25,
27,
23,
15,
12,
12,
9,
7,
5,
7,
2,
1,
1,
1,
2,
0,
0,
1,
0,
0,
0,
1,
1,
1,
0,
1,
0,
1,
2,
0,
0,
0,
0,
0,
1,
1,
0,
0,
0,
1,
1,
1,
0,
1,
0,
0,
0,
0,
0,
0,
0,
0,
1,
0,
0,
0,
0,
0,
0,
0,
0,
0,
0,
0,
0,
0,
0,
0,
0,
0,
0,
0,
0,
0,
0,
0,
0,
0,
0,
0,
0,
0,
0,
0,
0,
0,
0,
0,
0,
0,
0,
0,
0,
0,
0,
0,
0,
0,
0,
0,
0,
0,
0,
0,
0,
0,
0,
0,
0,
0,
0,
0,
0,
0,
0,
0,
0,
0,
0,
0,
0,
0,
0,
0,
0,
0,
0,
0,
0,
0,
0,
0,
0,
0,
0,
0,
0,
0,
0,
0,
0,
0,
0,
0,
0,
0,
0,
0,
0,
0,
0,
0,
0,
0,
0,
0,
0,
0,
0,
0,
0,
#ENDOFDATA   :

File: SPI MM2 SPI Magnetite[2][4].msa
#FORMAT      : EMSA/MAS Spectral Data File
#VERSION     : 1.0
#TITLE       : SPI MM2 SPI Magnetite[2][all]
#DATE        : 13-MAR-2025
#TIME        : 09:20
#OWNER       : Unknown
#NPOINTS     : 4096
#NCOLUMNS    : 1
#XUNITS      : eV
#YUNITS      : counts
#DATATYPE    : Y
#XPERCHAN    : 9.99778
#OFFSET      : 1.69135
#BEAMKV      : 20
#SIGNALTYPE  : EDS
#ELEVANGLE   : 35
#AZIMANGLE   : 0
#LIVETIME    : 240.007
#REALTIME    : 256.996
#PROBECUR    : 1.02582
#TAUWIND     : 0
#TDEADLYR    : 0
#TACTLYR     : 0.045
#TALWIND     : 0.025
#CHOFFSET    : 0.0
#XLABEL      : Energy (eV)
#YLABEL      : Counts
#XPOSITION   : 3.95208
#YPOSITION   : -4.1611
#ZPOSITION   : 31.03509
#EDSDET      : SD
##SPECIMEN   : SPI MM2 SPI Magnetite[2][all]
##D2STDCMP   : SPI Magnetite,(O:27.53),(Si:0.01),(Mn:0.18),(Fe:71.88)
##DET_HASH   : 12273538-fd48-a23f-0a19-f1e6fa85caef
##CALIB_HASH : 6abaa72c-aa41-8738-0be9-f592914732f3
##WORKING    : 15.0 mm
##DET_NAME   : EDAX All
##DET_MODE   : MediumLE
#SPECTRUM    :
23,
270,
11897,
9463,
66537,
51880,
2375,
2343,
2906,
3496,
3749,
4170,
4582,
4835,
4313,
4448,
4352,
4373,
4299,
4183,
4213,
4127,
3957,
3903,
3597,
3645,
3462,
3239,
3256,
3049,
3032,
2972,
3011,
3230,
2785,
2774,
2429,
2361,
2346,
2389,
2279,
2237,
2601,
2167,
2315,
35953,
110018,
2910,
1903,
2426,
14244,
7753,
1221,
1267,
1241,
1209,
1105,
1177,
1127,
1046,
979,
1027,
1003,
946,
961,
909,
875,
873,
816,
778,
781,
791,
758,
697,
724,
668,
660,
644,
614,
549,
571,
572,
537,
514,
498,
475,
472,
399,
437,
410,
398,
436,
427,
321,
326,
313,
349,
304,
254,
299,
230,
219,
223,
205,
178,
188,
193,
182,
178,
147,
136,
141,
147,
131,
131,
94,
111,
97,
87,
82,
69,
66,
60,
61,
60,
47,
44,
46,
41,
35,
30,
30,
25,
27,
24,
26,
16,
11,
13,
8,
3,
5,
4,
2,
2,
1,
1,
0,
2,
1,
2,
3,
0,
0,
0,
2,
0,
1,
0,
1,
2,
0,
2,
0,
0,
0,
0,
0,
0,
0,
0,
0,
1,
0,
1,
0,
0,
2,
0,
0,
0,
0,
0,
0,
0,
0,
0,
0,
0,
0,
0,
0,
0,
0,
0,
0,
0,
0,
0,
0,
0,
0,
0,
0,
0,
0,
0,
0,
0,
0,
0,
0,
0,
0,
0,
0,
0,
0,
0,
0,
0,
0,
0,
0,
0,
0,
0,
0,
0,
0,
0,
0,
0,
0,
0,
0,
0,
0,
0,
0,
0,
0,
0,
0,
0,
0,
0,
0,
0,
0,
0,
0,
0,
0,
0,
0,
0,
0,
0,
0,
0,
0,
0,
0,
0,
0,
0,
0,
0,
0,
0,
0,
0,
0,
0,
0,
0,
0,
0,
0,
0,
0,
0,
0,
0,
0,
0,
0,
0,
0,
0,
0,
0,
0,
#ENDOFDATA   :

File: SPI MM2 SPI Magnetite[3][4].msa
#FORMAT      : EMSA/MAS Spectral Data File
#VERSION     : 1.0
#TITLE       : SPI MM2 SPI Magnetite[3][all]
#DATE        : 13-MAR-2025
#TIME        : 09:21
#OWNER       : Unknown
#NPOINTS     : 4096
#NCOLUMNS    : 1
#XUNITS      : eV
#YUNITS      : counts
#DATATYPE    : Y
#XPERCHAN    : 9.99778
#OFFSET      : 1.69135
#BEAMKV      : 20
#SIGNALTYPE  : EDS
#ELEVANGLE   : 35
#AZIMANGLE   : 0
#LIVETIME    : 239.844
#REALTIME    : 256.806
#PROBECUR    : 1.02582
#TAUWIND     : 0
#TDEADLYR    : 0
#TACTLYR     : 0.045
#TALWIND     : 0.025
#CHOFFSET    : 0.0
#XLABEL      : Energy (eV)
#YLABEL      : Counts
#XPOSITION   : 3.91513
#YPOSITION   : -4.1553
#ZPOSITION   : 31.03509
#EDSDET      : SD
##SPECIMEN   : SPI MM2 SPI Magnetite[3][all]
##D2STDCMP   : SPI Magnetite,(O:27.53),(Si:0.01),(Mn:0.18),(Fe:71.88)
##DET_HASH   : 12273538-fd48-a23f-0a19-f1e6fa85caef
##CALIB_HASH : 6abaa72c-aa41-8738-0be9-f592914732f3
##WORKING    : 15.0 mm
##DET_NAME   : EDAX All
##DET_MODE   : MediumLE
#SPECTRUM    :
27,
283,
12025,
9388,
66354,
51756,
2310,
2343,
2827,
3455,
3712,
4303,
4644,
4831,
4288,
4413,
4423,
4252,
4292,
4354,
4170,
4108,
3889,
3846,
3803,
3560,
3434,
3307,
3240,
3159,
3050,
3030,
3016,
3265,
2652,
2749,
2506,
2376,
2427,
2380,
2106,
2234,
2728,
2188,
2420,
35962,
109835,
3040,
1894,
2326,
14102,
7901,
1308,
1203,
1340,
1159,
1189,
1053,
1054,
1070,
1015,
995,
997,
956,
965,
928,
874,
859,
873,
810,
784,
719,
714,
692,
679,
666,
666,
631,
625,
572,
579,
510,
518,
492,
482,
459,
456,
436,
427,
402,
377,
440,
412,
339,
315,
313,
309,
302,
277,
246,
253,
216,
237,
217,
219,
181,
187,
181,
183,
162,
148,
142,
134,
129,
125,
106,
99,
84,
81,
94,
70,
76,
67,
64,
58,
51,
46,
40,
43,
36,
33,
31,
26,
30,
22,
16,
17,
7,
9,
9,
3,
5,
3,
2,
1,
0,
2,
1,
0,
1,
1,
1,
2,
1,
0,
1,
1,
0,
0,
1,
1,
1,
1,
0,
1,
0,
1,
0,
0,
0,
0,
1,
0,
0,
1,
0,
0,
0,
2,
0,
0,
0,
1,
1,
0,
0,
0,
0,
0,
0,
0,
0,
0,
0,
0,
0,
0,
0,
0,
0,
0,
1,
0,
0,
0,
0,
0,
0,
0,
0,
0,
0,
0,
0,
0,
0,
0,
0,
0,
0,
0,
0,
0,
0,
0,
0,
0,
0,
0,
0,
0,
0,
0,
0,
0,
0,
0,
0,
0,
0,
0,
0,
0,
0,
0,
0,
0,
0,
0,
1,
0,
0,
0,
0,
0,
0,
0,
0,
0,
0,
0,
0,
0,
0,
0,
0,
0,
0,
0,
0,
0,
0,
0,
0,
0,
0,
0,
0,
0,
0,
0,
0,
0,
0,
0,
0,
0,
0,
0,
0,
0,
0,
0,
0,
#ENDOFDATA   :

File: SPI MM2 SPI Magnetite[4][4].msa
#FORMAT      : EMSA/MAS Spectral Data File
#VERSION     : 1.0
#TITLE       : SPI MM2 SPI Magnetite[4][all]
#DATE        : 13-MAR-2025
#TIME        : 09:22
#OWNER       : Unknown
#NPOINTS     : 4096
#NCOLUMNS    : 1
#XUNITS      : eV
#YUNITS      : counts
#DATATYPE    : Y
#XPERCHAN    : 9.99778
#OFFSET      : 1.69135
#BEAMKV      : 20
#SIGNALTYPE  : EDS
#ELEVANGLE   : 35
#AZIMANGLE   : 0
#LIVETIME    : 239.903
#REALTIME    : 256.867
#PROBECUR    : 1.02582
#TAUWIND     : 0
#TDEADLYR    : 0
#TACTLYR     : 0.045
#TALWIND     : 0.025
#CHOFFSET    : 0.0
#XLABEL      : Energy (eV)
#YLABEL      : Counts
#XPOSITION   : 3.88913
#YPOSITION   : -4.19607
#ZPOSITION   : 31.03509
#EDSDET      : SD
##SPECIMEN   : SPI MM2 SPI Magnetite[4][all]
##D2STDCMP   : SPI Magnetite,(O:27.53),(Si:0.01),(Mn:0.18),(Fe:71.88)
##DET_HASH   : 12273538-fd48-a23f-0a19-f1e6fa85caef
##CALIB_HASH : 6abaa72c-aa41-8738-0be9-f592914732f3
##WORKING    : 15.0 mm
##DET_NAME   : EDAX All
##DET_MODE   : MediumLE
#SPECTRUM    :
36,
278,
12165,
9444,
66027,
51888,
2385,
2385,
2915,
3435,
3949,
4254,
4578,
4923,
4324,
4472,
4422,
4424,
4300,
4227,
4077,
3943,
4036,
3788,
3766,
3493,
3489,
3276,
3292,
3158,
2938,
2903,
3318,
3303,
2722,
2680,
2484,
2513,
2508,
2379,
2262,
2091,
2675,
2142,
2305,
35695,
109617,
2948,
1858,
2333,
14231,
7840,
1229,
1266,
1265,
1149,
1094,
1091,
1099,
1049,
1046,
976,
1025,
952,
906,
889,
915,
875,
838,
801,
836,
754,
739,
704,
644,
693,
644,
613,
610,
545,
577,
550,
533,
492,
453,
467,
453,
450,
408,
378,
412,
451,
379,
359,
332,
302,
305,
297,
304,
272,
252,
247,
236,
192,
201,
189,
190,
149,
157,
161,
154,
145,
156,
110,
123,
101,
109,
76,
87,
81,
80,
86,
66,
53,
57,
53,
48,
33,
40,
36,
27,
32,
24,
20,
13,
17,
17,
10,
8,
13,
4,
6,
1,
5,
0,
1,
2,
0,
0,
1,
0,
1,
2,
0,
1,
0,
0,
1,
0,
0,
1,
0,
1,
0,
0,
0,
0,
0,
0,
1,
0,
0,
0,
0,
0,
0,
0,
1,
1,
0,
1,
0,
0,
0,
0,
0,
1,
0,
0,
0,
0,
0,
0,
0,
0,
0,
0,
0,
0,
0,
0,
0,
0,
0,
0,
0,
0,
0,
0,
0,
0,
0,
0,
0,
0,
0,
0,
0,
0,
0,
0,
0,
0,
0,
0,
0,
0,
0,
0,
0,
0,
0,
0,
0,
0,
0,
0,
0,
0,
0,
0,
0,
0,
0,
0,
0,
0,
0,
0,
0,
0,
0,
0,
0,
0,
0,
0,
0,
0,
0,
0,
0,
0,
0,
0,
0,
0,
0,
0,
0,
0,
0,
0,
0,
0,
0,
0,
0,
0,
0,
0,
0,
0,
0,
0,
0,
0,
0,
0,
0,
0,
0,
0,
0,
#ENDOFDATA   :

File: SPI MM2 SPI Magnetite[5][4].msa
#FORMAT      : EMSA/MAS Spectral Data File
#VERSION     : 1.0
#TITLE       : SPI MM2 SPI Magnetite[5][all]
#DATE        : 13-MAR-2025
#TIME        : 09:23
#OWNER       : Unknown
#NPOINTS     : 4096
#NCOLUMNS    : 1
#XUNITS      : eV
#YUNITS      : counts
#DATATYPE    : Y
#XPERCHAN    : 9.99778
#OFFSET      : 1.69135
#BEAMKV      : 20
#SIGNALTYPE  : EDS
#ELEVANGLE   : 35
#AZIMANGLE   : 0
#LIVETIME    : 239.801
#REALTIME    : 256.752
#PROBECUR    : 1.02582
#TAUWIND     : 0
#TDEADLYR    : 0
#TACTLYR     : 0.045
#TALWIND     : 0.025
#CHOFFSET    : 0.0
#XLABEL      : Energy (eV)
#YLABEL      : Counts
#XPOSITION   : 3.90618
#YPOSITION   : -4.16192
#ZPOSITION   : 31.03509
#EDSDET      : SD
##SPECIMEN   : SPI MM2 SPI Magnetite[5][all]
##D2STDCMP   : SPI Magnetite,(O:27.53),(Si:0.01),(Mn:0.18),(Fe:71.88)
##DET_HASH   : 12273538-fd48-a23f-0a19-f1e6fa85caef
##CALIB_HASH : 6abaa72c-aa41-8738-0be9-f592914732f3
##WORKING    : 15.0 mm
##DET_NAME   : EDAX All
##DET_MODE   : MediumLE
#SPECTRUM    :
21,
281,
12203,
9492,
66335,
51623,
2339,
2339,
2823,
3397,
3810,
4309,
4685,
4759,
4338,
4394,
4552,
4416,
4400,
4240,
4174,
4030,
3879,
3795,
3714,
3556,
3516,
3343,
3185,
3115,
3092,
2949,
3109,
3308,
2709,
2632,
2474,
2529,
2403,
2351,
2246,
2163,
2743,
2171,
2348,
36286,
109603,
2909,
1832,
2399,
14213,
7873,
1254,
1255,
1286,
1185,
1135,
1133,
1070,
1057,
1044,
1107,
999,
954,
964,
865,
874,
883,
847,
808,
833,
776,
743,
769,
721,
701,
686,
615,
595,
585,
586,
583,
547,
502,
522,
492,
496,
409,
432,
407,
404,
473,
440,
361,
281,
293,
313,
314,
259,
254,
230,
238,
222,
216,
181,
206,
179,
162,
182,
144,
133,
122,
149,
140,
126,
95,
120,
96,
92,
87,
81,
52,
63,
64,
49,
52,
49,
42,
39,
36,
39,
29,
26,
28,
24,
21,
13,
18,
9,
9,
10,
8,
2,
1,
0,
0,
1,
0,
1,
1,
0,
0,
0,
1,
1,
0,
0,
0,
1,
3,
1,
1,
0,
0,
0,
0,
1,
0,
0,
0,
0,
0,
0,
0,
1,
0,
0,
0,
0,
0,
0,
1,
0,
2,
0,
0,
0,
0,
0,
0,
0,
0,
0,
0,
0,
1,
1,
0,
0,
0,
0,
0,
0,
0,
0,
0,
0,
0,
0,
0,
0,
0,
0,
0,
0,
0,
0,
0,
0,
0,
0,
0,
0,
0,
0,
0,
0,
0,
0,
0,
0,
0,
0,
0,
0,
0,
0,
0,
0,
0,
0,
0,
0,
0,
0,
0,
0,
0,
0,
0,
0,
0,
0,
0,
0,
0,
0,
0,
0,
0,
0,
0,
0,
0,
0,
0,
0,
0,
0,
0,
0,
0,
0,
0,
0,
0,
0,
0,
0,
0,
0,
0,
0,
0,
0,
0,
0,
0,
0,
0,
0,
0,
0,
0,
#ENDOFDATA   :

File: SPI MM2 SPI Magnetite[6][4].msa
#FORMAT      : EMSA/MAS Spectral Data File
#VERSION     : 1.0
#TITLE       : SPI MM2 SPI Magnetite[6][all]
#DATE        : 13-MAR-2025
#TIME        : 09:24
#OWNER       : Unknown
#NPOINTS     : 4096
#NCOLUMNS    : 1
#XUNITS      : eV
#YUNITS      : counts
#DATATYPE    : Y
#XPERCHAN    : 9.99778
#OFFSET      : 1.69135
#BEAMKV      : 20
#SIGNALTYPE  : EDS
#ELEVANGLE   : 35
#AZIMANGLE   : 0
#LIVETIME    : 240.075
#REALTIME    : 257.071
#PROBECUR    : 1.02582
#TAUWIND     : 0
#TDEADLYR    : 0
#TACTLYR     : 0.045
#TALWIND     : 0.025
#CHOFFSET    : 0.0
#XLABEL      : Energy (eV)
#YLABEL      : Counts
#XPOSITION   : 3.94307
#YPOSITION   : -4.25265
#ZPOSITION   : 31.03509
#EDSDET      : SD
##SPECIMEN   : SPI MM2 SPI Magnetite[6][all]
##D2STDCMP   : SPI Magnetite,(O:27.53),(Si:0.01),(Mn:0.18),(Fe:71.88)
##DET_HASH   : 12273538-fd48-a23f-0a19-f1e6fa85caef
##CALIB_HASH : 6abaa72c-aa41-8738-0be9-f592914732f3
##WORKING    : 15.0 mm
##DET_NAME   : EDAX All
##DET_MODE   : MediumLE
#SPECTRUM    :
26,
289,
12088,
9336,
66289,
52097,
2391,
2394,
2883,
3479,
3829,
4315,
4577,
4744,
4350,
4367,
4501,
4414,
4398,
4337,
4161,
4117,
4075,
3742,
3777,
3549,
3495,
3440,
3253,
3089,
3090,
2922,
3055,
3315,
2741,
2582,
2620,
2555,
2451,
2323,
2295,
2178,
2623,
2108,
2359,
36340,
110612,
3038,
1872,
2391,
14241,
7880,
1295,
1338,
1284,
1193,
1161,
1118,
1112,
1034,
1085,
1017,
1014,
980,
896,
864,
899,
904,
856,
866,
789,
748,
754,
692,
704,
656,
651,
625,
590,
571,
579,
569,
515,
501,
504,
494,
431,
480,
436,
383,
406,
465,
396,
354,
365,
282,
332,
305,
269,
257,
245,
268,
195,
228,
189,
200,
192,
180,
158,
138,
138,
154,
130,
142,
103,
122,
88,
80,
75,
78,
94,
91,
57,
53,
78,
42,
57,
41,
48,
39,
27,
36,
31,
25,
19,
10,
28,
14,
13,
6,
8,
8,
1,
1,
0,
1,
1,
0,
0,
0,
0,
1,
0,
0,
1,
1,
3,
3,
0,
0,
0,
0,
0,
1,
0,
0,
0,
2,
0,
0,
0,
0,
0,
0,
0,
0,
0,
0,
1,
0,
0,
0,
0,
0,
0,
0,
0,
0,
0,
0,
0,
0,
0,
0,
0,
0,
0,
0,
0,
0,
0,
0,
0,
0,
0,
0,
0,
0,
1,
0,
0,
0,
1,
0,
0,
0,
0,
0,
0,
0,
0,
0,
0,
0,
0,
0,
0,
0,
0,
0,
0,
0,
0,
0,
0,
0,
0,
0,
0,
0,
0,
0,
0,
0,
0,
0,
0,
0,
0,
0,
0,
0,
0,
0,
0,
0,
0,
0,
0,
0,
0,
0,
0,
0,
0,
0,
0,
0,
0,
0,
0,
0,
0,
0,
0,
0,
0,
0,
0,
0,
0,
0,
0,
0,
0,
0,
0,
0,
0,
0,
0,
0,
0,
0,
#ENDOFDATA   :

File: SPI MM2 SPI Magnetite[7][4].msa
#FORMAT      : EMSA/MAS Spectral Data File
#VERSION     : 1.0
#TITLE       : SPI MM2 SPI Magnetite[7][all]
#DATE        : 13-MAR-2025
#TIME        : 09:26
#OWNER       : Unknown
#NPOINTS     : 4096
#NCOLUMNS    : 1
#XUNITS      : eV
#YUNITS      : counts
#DATATYPE    : Y
#XPERCHAN    : 9.99778
#OFFSET      : 1.69135
#BEAMKV      : 20
#SIGNALTYPE  : EDS
#ELEVANGLE   : 35
#AZIMANGLE   : 0
#LIVETIME    : 239.868
#REALTIME    : 256.75
#PROBECUR    : 1.02582
#TAUWIND     : 0
#TDEADLYR    : 0
#TACTLYR     : 0.045
#TALWIND     : 0.025
#CHOFFSET    : 0.0
#XLABEL      : Energy (eV)
#YLABEL      : Counts
#XPOSITION   : 3.90276
#YPOSITION   : -4.09581
#ZPOSITION   : 31.03509
#EDSDET      : SD
##SPECIMEN   : SPI MM2 SPI Magnetite[7][all]
##D2STDCMP   : SPI Magnetite,(O:27.53),(Si:0.01),(Mn:0.18),(Fe:71.88)
##DET_HASH   : 12273538-fd48-a23f-0a19-f1e6fa85caef
##CALIB_HASH : 6abaa72c-aa41-8738-0be9-f592914732f3
##WORKING    : 15.0 mm
##DET_NAME   : EDAX All
##DET_MODE   : MediumLE
#SPECTRUM    :
23,
313,
11905,
9416,
64938,
50976,
2283,
3116,
2858,
3337,
3837,
4943,
4587,
4736,
4252,
4312,
4510,
4462,
4223,
4289,
4124,
4030,
3786,
3905,
3736,
3473,
3383,
3285,
3252,
3080,
3006,
2871,
3062,
3183,
2634,
2712,
2534,
2416,
2449,
2414,
2201,
2090,
2694,
2100,
2402,
35698,
109459,
2961,
1846,
2359,
14262,
7806,
1287,
1300,
1269,
1183,
1138,
1114,
1118,
1105,
1032,
1146,
1188,
930,
941,
916,
854,
832,
878,
848,
848,
709,
732,
739,
675,
666,
618,
639,
636,
538,
567,
558,
509,
515,
462,
451,
464,
423,
422,
413,
401,
459,
381,
335,
309,
300,
326,
253,
261,
236,
256,
246,
244,
203,
197,
178,
196,
161,
163,
147,
141,
151,
121,
132,
115,
113,
90,
86,
57,
72,
69,
78,
57,
59,
58,
53,
43,
40,
38,
35,
44,
36,
20,
17,
18,
21,
17,
17,
11,
11,
8,
8,
2,
1,
2,
0,
1,
0,
1,
1,
0,
1,
0,
1,
2,
1,
0,
0,
0,
1,
0,
0,
0,
1,
1,
0,
0,
1,
0,
0,
0,
0,
0,
1,
0,
0,
0,
0,
1,
0,
0,
0,
0,
1,
0,
0,
0,
0,
0,
1,
0,
1,
0,
0,
0,
0,
0,
0,
0,
0,
0,
0,
0,
0,
0,
0,
0,
0,
0,
0,
0,
0,
0,
0,
0,
0,
0,
0,
0,
0,
0,
0,
0,
0,
0,
0,
0,
0,
0,
0,
0,
0,
0,
0,
0,
0,
0,
0,
0,
0,
0,
0,
0,
0,
0,
0,
0,
0,
0,
0,
0,
0,
0,
0,
0,
0,
0,
0,
0,
0,
0,
0,
0,
0,
0,
0,
0,
0,
0,
0,
0,
0,
0,
0,
0,
0,
0,
0,
0,
0,
0,
0,
0,
0,
0,
0,
0,
0,
0,
0,
0,
0,
0,
0,
#ENDOFDATA   :

File: SPI MM2 SPI Mangotantalite[0][4].msa
#FORMAT      : EMSA/MAS Spectral Data File
#VERSION     : 1.0
#TITLE       : SPI MM2 SPI Mangotantalite[0][all]
#DATE        : 13-MAR-2025
#TIME        : 09:36
#OWNER       : Unknown
#NPOINTS     : 4096
#NCOLUMNS    : 1
#XUNITS      : eV
#YUNITS      : counts
#DATATYPE    : Y
#XPERCHAN    : 9.99778
#OFFSET      : 1.69135
#BEAMKV      : 20
#SIGNALTYPE  : EDS
#ELEVANGLE   : 35
#AZIMANGLE   : 0
#LIVETIME    : 239.813
#REALTIME    : 261.937
#PROBECUR    : 1.02582
#TAUWIND     : 0
#TDEADLYR    : 0
#TACTLYR     : 0.045
#TALWIND     : 0.025
#CHOFFSET    : 0.0
#XLABEL      : Energy (eV)
#YLABEL      : Counts
#XPOSITION   : -1.62748
#YPOSITION   : -4.64465
#ZPOSITION   : 31.03509
#EDSDET      : SD
##SPECIMEN   : SPI MM2 SPI Mangotantalite[0][all]
##DET_HASH   : 12273538-fd48-a23f-0a19-f1e6fa85caef
##CALIB_HASH : 6abaa72c-aa41-8738-0be9-f592914732f3
##WORKING    : 15.0 mm
##DET_NAME   : EDAX All
##DET_MODE   : MediumLE
#SPECTRUM    :
23,
692,
14787,
6145,
25574,
7719,
5852,
6521,
7316,
10277,
11242,
9904,
137927,
29658,
9920,
12315,
19362,
6315,
4843,
5092,
4639,
4799,
4810,
4849,
4964,
4966,
4842,
4683,
4815,
4779,
4797,
4471,
5433,
4330,
4249,
4322,
4034,
4116,
4032,
3844,
3636,
4290,
27757,
5442,
3477,
4564,
9312,
4207,
2982,
3007,
3322,
4064,
3062,
2859,
2677,
2606,
2509,
4347,
26211,
6852,
2624,
2273,
2241,
2098,
2040,
2263,
6143,
9779,
4104,
6020,
2284,
1737,
1563,
1559,
1460,
1480,
1431,
1820,
2665,
1506,
1637,
1409,
1183,
1181,
1059,
1001,
947,
937,
937,
960,
895,
858,
812,
804,
736,
723,
669,
663,
645,
627,
572,
540,
513,
501,
457,
501,
437,
425,
404,
405,
359,
342,
352,
306,
263,
285,
275,
245,
253,
237,
184,
193,
188,
166,
162,
156,
129,
136,
98,
99,
105,
80,
70,
77,
59,
61,
54,
46,
39,
26,
23,
16,
11,
4,
6,
1,
1,
3,
3,
5,
1,
2,
2,
2,
3,
2,
1,
1,
3,
2,
4,
2,
0,
1,
0,
0,
0,
0,
0,
0,
0,
0,
0,
0,
0,
0,
2,
1,
1,
0,
0,
0,
0,
0,
0,
0,
1,
0,
0,
0,
1,
0,
0,
0,
1,
0,
0,
1,
0,
0,
0,
1,
0,
1,
1,
0,
0,
0,
0,
0,
0,
0,
0,
0,
0,
0,
0,
0,
0,
0,
0,
0,
0,
0,
0,
0,
0,
0,
0,
0,
0,
0,
0,
0,
0,
0,
0,
0,
0,
0,
0,
0,
0,
0,
0,
0,
0,
0,
0,
0,
0,
0,
0,
0,
0,
0,
0,
0,
0,
0,
0,
0,
0,
0,
0,
0,
0,
0,
0,
0,
0,
0,
0,
0,
0,
0,
0,
0,
0,
0,
0,
0,
0,
0,
0,
0,
0,
0,
0,
0,
0,
0,
0,
0,
#ENDOFDATA   :

File: SPI MM2 SPI Mangotantalite[1][4].msa
#FORMAT      : EMSA/MAS Spectral Data File
#VERSION     : 1.0
#TITLE       : SPI MM2 SPI Mangotantalite[1][all]
#DATE        : 13-MAR-2025
#TIME        : 09:37
#OWNER       : Unknown
#NPOINTS     : 4096
#NCOLUMNS    : 1
#XUNITS      : eV
#YUNITS      : counts
#DATATYPE    : Y
#XPERCHAN    : 9.99778
#OFFSET      : 1.69135
#BEAMKV      : 20
#SIGNALTYPE  : EDS
#ELEVANGLE   : 35
#AZIMANGLE   : 0
#LIVETIME    : 239.8594
#REALTIME    : 262.063
#PROBECUR    : 1.02582
#TAUWIND     : 0
#TDEADLYR    : 0
#TACTLYR     : 0.045
#TALWIND     : 0.025
#CHOFFSET    : 0.0
#XLABEL      : Energy (eV)
#YLABEL      : Counts
#XPOSITION   : -1.70386
#YPOSITION   : -4.64235
#ZPOSITION   : 31.03509
#EDSDET      : SD
##SPECIMEN   : SPI MM2 SPI Mangotantalite[1][all]
##DET_HASH   : 12273538-fd48-a23f-0a19-f1e6fa85caef
##CALIB_HASH : 6abaa72c-aa41-8738-0be9-f592914732f3
##WORKING    : 15.0 mm
##DET_NAME   : EDAX All
##DET_MODE   : MediumLE
#SPECTRUM    :
23,
695,
14753,
6186,
25298,
7930,
5708,
6477,
7212,
10376,
11238,
10094,
140132,
29925,
10130,
12045,
18577,
6449,
4657,
4939,
4641,
4621,
4871,
4824,
4929,
4906,
4754,
4755,
4834,
4677,
4596,
4604,
5463,
4445,
4288,
4317,
4183,
4150,
4047,
3908,
3721,
4542,
27725,
5542,
3525,
4532,
9203,
4038,
3016,
2951,
3366,
4025,
3112,
2905,
2746,
2613,
2637,
4189,
26812,
6944,
2566,
2313,
2166,
2122,
2015,
2411,
6083,
9769,
4305,
5967,
2241,
1754,
1540,
1498,
1496,
1506,
1426,
1901,
2694,
1488,
1626,
1326,
1182,
1218,
1075,
1014,
943,
959,
982,
912,
854,
888,
792,
763,
778,
722,
647,
661,
679,
623,
593,
591,
555,
524,
483,
460,
469,
430,
378,
362,
370,
375,
318,
289,
258,
270,
273,
234,
254,
250,
203,
205,
193,
162,
163,
130,
141,
138,
123,
88,
94,
88,
85,
81,
68,
49,
42,
33,
40,
29,
21,
19,
11,
3,
3,
6,
2,
3,
2,
4,
2,
4,
0,
3,
2,
1,
2,
3,
0,
2,
1,
3,
2,
1,
0,
1,
0,
0,
1,
2,
1,
1,
0,
0,
1,
1,
1,
0,
0,
0,
0,
0,
1,
0,
0,
1,
1,
0,
0,
0,
0,
0,
0,
0,
1,
0,
1,
1,
0,
1,
0,
0,
0,
0,
1,
0,
0,
0,
0,
0,
0,
0,
0,
0,
0,
0,
0,
0,
0,
0,
0,
0,
0,
0,
0,
0,
0,
1,
0,
0,
0,
0,
0,
0,
0,
0,
0,
0,
0,
0,
0,
0,
0,
0,
0,
0,
0,
0,
0,
0,
0,
0,
0,
0,
0,
0,
0,
0,
0,
0,
0,
0,
0,
0,
0,
0,
0,
0,
0,
0,
0,
0,
0,
0,
0,
0,
0,
0,
0,
0,
0,
0,
0,
0,
0,
0,
0,
0,
0,
0,
0,
0,
0,
0,
#ENDOFDATA   :