Folder: spex_quant/N132962/Quantification/20 keV/MMM2 (part 18)

File: SPI MM2 Zircon[2][4].msa
#FORMAT      : EMSA/MAS Spectral Data File
#VERSION     : 1.0
#TITLE       : SPI MM2 Zircon[2][all]
#DATE        : 13-MAR-2025
#TIME        : 13:46
#OWNER       : Unknown
#NPOINTS     : 4096
#NCOLUMNS    : 1
#XUNITS      : eV
#YUNITS      : counts
#DATATYPE    : Y
#XPERCHAN    : 9.99778
#OFFSET      : 1.69135
#BEAMKV      : 20
#SIGNALTYPE  : EDS
#ELEVANGLE   : 35
#AZIMANGLE   : 0
#LIVETIME    : 239.859
#REALTIME    : 257.446
#PROBECUR    : 1.0264
#TAUWIND     : 0
#TDEADLYR    : 0
#TACTLYR     : 0.045
#TALWIND     : 0.025
#CHOFFSET    : 0.0
#XLABEL      : Energy (eV)
#YLABEL      : Counts
#XPOSITION   : -2.66698
#YPOSITION   : 6.7537
#ZPOSITION   : 31.03511
#EDSDET      : SD
##SPECIMEN   : SPI MM2 Zircon[2][all]
##DET_HASH   : 12273538-fd48-a23f-0a19-f1e6fa85caef
##CALIB_HASH : 6abaa72c-aa41-8738-0be9-f592914732f3
##WORKING    : 15.0 mm
##DET_NAME   : EDAX All
##DET_MODE   : MediumLE
#SPECTRUM    :
23,
738,
14738,
4548,
25537,
3377,
4401,
4687,
5617,
6381,
7118,
7801,
51017,
32405,
27628,
102477,
12451,
3339,
4120,
3267,
3056,
3165,
3139,
3141,
3126,
3160,
2962,
3259,
3180,
3046,
2909,
2772,
2738,
2679,
2574,
2546,
2502,
2515,
2332,
2336,
2179,
2197,
2111,
2017,
2043,
2025,
2024,
1845,
1797,
1748,
1663,
1645,
1512,
1618,
1464,
1458,
1699,
1487,
1320,
1271,
1262,
1231,
1171,
1139,
1209,
1102,
1132,
1050,
979,
973,
929,
880,
830,
878,
820,
776,
766,
762,
748,
671,
692,
650,
642,
590,
574,
509,
541,
500,
491,
452,
422,
421,
412,
399,
381,
368,
360,
331,
328,
299,
289,
274,
262,
231,
234,
239,
233,
160,
167,
180,
171,
199,
481,
428,
153,
115,
130,
115,
91,
97,
99,
85,
66,
70,
61,
85,
106,
76,
58,
40,
39,
34,
26,
21,
30,
16,
16,
12,
13,
5,
7,
5,
2,
0,
1,
1,
1,
2,
1,
0,
0,
0,
0,
0,
1,
1,
0,
0,
0,
0,
0,
0,
0,
0,
0,
1,
0,
1,
0,
0,
0,
0,
0,
0,
0,
0,
1,
0,
0,
0,
0,
0,
1,
0,
1,
0,
0,
0,
1,
0,
0,
0,
0,
0,
0,
0,
0,
0,
0,
0,
0,
0,
0,
0,
0,
0,
0,
0,
0,
0,
0,
0,
0,
0,
0,
0,
0,
0,
0,
0,
0,
0,
0,
0,
0,
0,
0,
0,
0,
0,
0,
0,
0,
0,
0,
0,
0,
0,
0,
0,
0,
0,
0,
0,
0,
0,
0,
0,
0,
0,
0,
0,
0,
0,
0,
0,
0,
0,
0,
0,
0,
0,
0,
0,
0,
0,
0,
0,
0,
0,
0,
0,
0,
0,
0,
0,
0,
0,
0,
0,
0,
0,
0,
0,
0,
0,
0,
0,
0,
0,
0,
0,
0,
0,
#ENDOFDATA   :

File: SPI MM2 Zircon[3][4].msa
#FORMAT      : EMSA/MAS Spectral Data File
#VERSION     : 1.0
#TITLE       : SPI MM2 Zircon[3][all]
#DATE        : 13-MAR-2025
#TIME        : 13:48
#OWNER       : Unknown
#NPOINTS     : 4096
#NCOLUMNS    : 1
#XUNITS      : eV
#YUNITS      : counts
#DATATYPE    : Y
#XPERCHAN    : 9.99778
#OFFSET      : 1.69135
#BEAMKV      : 20
#SIGNALTYPE  : EDS
#ELEVANGLE   : 35
#AZIMANGLE   : 0
#LIVETIME    : 239.661
#REALTIME    : 256.684
#PROBECUR    : 1.0264
#TAUWIND     : 0
#TDEADLYR    : 0
#TACTLYR     : 0.045
#TALWIND     : 0.025
#CHOFFSET    : 0.0
#XLABEL      : Energy (eV)
#YLABEL      : Counts
#XPOSITION   : -2.66965
#YPOSITION   : 6.6381
#ZPOSITION   : 31.03511
#EDSDET      : SD
##SPECIMEN   : SPI MM2 Zircon[3][all]
##DET_HASH   : 12273538-fd48-a23f-0a19-f1e6fa85caef
##CALIB_HASH : 6abaa72c-aa41-8738-0be9-f592914732f3
##WORKING    : 15.0 mm
##DET_NAME   : EDAX All
##DET_MODE   : MediumLE
#SPECTRUM    :
21,
699,
14570,
4567,
26173,
4491,
4343,
4605,
5452,
6520,
6924,
7911,
48751,
30617,
27566,
94187,
11618,
3243,
4012,
3181,
3070,
3106,
3057,
3088,
3131,
3131,
3149,
3223,
2996,
3001,
2888,
2701,
2681,
2590,
2443,
2468,
2428,
2333,
2297,
2207,
2138,
2184,
2085,
2081,
1917,
2749,
4233,
1711,
1634,
1741,
1921,
1683,
1566,
1602,
1470,
1462,
1604,
1491,
1321,
1277,
1261,
1206,
1124,
1115,
1069,
1148,
1121,
1067,
956,
908,
953,
909,
789,
779,
768,
783,
732,
685,
686,
678,
668,
647,
578,
590,
521,
552,
492,
507,
464,
453,
437,
440,
406,
391,
365,
348,
338,
324,
280,
283,
271,
248,
234,
256,
231,
216,
225,
173,
170,
180,
145,
234,
467,
345,
142,
130,
105,
120,
90,
97,
80,
76,
81,
74,
62,
74,
100,
68,
52,
39,
37,
27,
30,
27,
14,
17,
15,
16,
11,
9,
8,
7,
0,
0,
0,
0,
0,
0,
1,
1,
1,
1,
0,
0,
0,
0,
0,
2,
0,
2,
0,
2,
0,
0,
0,
0,
0,
0,
0,
0,
1,
0,
0,
0,
0,
0,
0,
1,
1,
0,
2,
0,
1,
0,
0,
0,
0,
0,
0,
0,
0,
0,
0,
0,
0,
0,
0,
0,
0,
0,
0,
0,
0,
0,
0,
0,
0,
0,
0,
0,
0,
0,
0,
0,
0,
0,
0,
0,
0,
0,
0,
0,
0,
0,
0,
0,
0,
0,
0,
0,
0,
0,
0,
0,
0,
0,
0,
0,
0,
0,
0,
0,
0,
0,
0,
0,
0,
0,
0,
0,
0,
0,
0,
0,
0,
0,
0,
0,
0,
0,
0,
0,
0,
0,
0,
0,
0,
0,
0,
0,
0,
0,
0,
0,
0,
0,
0,
0,
0,
0,
0,
0,
0,
0,
0,
0,
0,
0,
0,
0,
0,
0,
0,
0,
#ENDOFDATA   :

File: SPI MM2 Zircon[4][4].msa
#FORMAT      : EMSA/MAS Spectral Data File
#VERSION     : 1.0
#TITLE       : SPI MM2 Zircon[4][all]
#DATE        : 13-MAR-2025
#TIME        : 13:49
#OWNER       : Unknown
#NPOINTS     : 4096
#NCOLUMNS    : 1
#XUNITS      : eV
#YUNITS      : counts
#DATATYPE    : Y
#XPERCHAN    : 9.99778
#OFFSET      : 1.69135
#BEAMKV      : 20
#SIGNALTYPE  : EDS
#ELEVANGLE   : 35
#AZIMANGLE   : 0
#LIVETIME    : 239.85
#REALTIME    : 257.455
#PROBECUR    : 1.0264
#TAUWIND     : 0
#TDEADLYR    : 0
#TACTLYR     : 0.045
#TALWIND     : 0.025
#CHOFFSET    : 0.0
#XLABEL      : Energy (eV)
#YLABEL      : Counts
#XPOSITION   : -2.60623
#YPOSITION   : 6.68041
#ZPOSITION   : 31.03511
#EDSDET      : SD
##SPECIMEN   : SPI MM2 Zircon[4][all]
##DET_HASH   : 12273538-fd48-a23f-0a19-f1e6fa85caef
##CALIB_HASH : 6abaa72c-aa41-8738-0be9-f592914732f3
##WORKING    : 15.0 mm
##DET_NAME   : EDAX All
##DET_MODE   : MediumLE
#SPECTRUM    :
24,
685,
14506,
4518,
25558,
3495,
4350,
4811,
5570,
6477,
7026,
7854,
51242,
32302,
27900,
102055,
12237,
3312,
4091,
3098,
3119,
3091,
3152,
3222,
3183,
3262,
3030,
3264,
3198,
3053,
2901,
2825,
2786,
2608,
2599,
2574,
2397,
2446,
2302,
2304,
2208,
2160,
2089,
1954,
2041,
1924,
2104,
1783,
1739,
1708,
1725,
1637,
1602,
1653,
1478,
1501,
1648,
1540,
1306,
1348,
1217,
1231,
1169,
1189,
1199,
1125,
1048,
1073,
991,
944,
899,
893,
900,
899,
809,
853,
708,
731,
718,
650,
639,
651,
638,
619,
608,
548,
499,
476,
485,
462,
460,
435,
421,
409,
337,
368,
360,
323,
284,
287,
308,
240,
295,
263,
226,
228,
208,
204,
191,
193,
166,
213,
457,
393,
151,
128,
107,
107,
95,
87,
100,
82,
94,
86,
74,
87,
100,
72,
49,
46,
29,
28,
28,
29,
27,
22,
12,
21,
12,
9,
8,
7,
2,
2,
0,
1,
0,
0,
0,
1,
1,
1,
0,
1,
1,
0,
1,
0,
0,
0,
1,
0,
1,
0,
0,
2,
0,
0,
0,
0,
0,
0,
0,
0,
0,
0,
1,
0,
0,
1,
1,
0,
0,
0,
0,
0,
1,
1,
0,
0,
0,
0,
0,
0,
0,
0,
0,
0,
0,
0,
0,
0,
1,
0,
0,
0,
0,
0,
0,
0,
0,
0,
0,
0,
0,
0,
0,
0,
0,
0,
0,
0,
0,
0,
0,
0,
0,
0,
0,
0,
0,
0,
0,
0,
0,
0,
0,
0,
0,
0,
0,
0,
0,
0,
0,
0,
0,
0,
0,
0,
0,
0,
0,
0,
0,
0,
0,
0,
0,
0,
0,
0,
0,
0,
0,
0,
0,
0,
0,
0,
0,
0,
0,
0,
0,
0,
0,
0,
0,
0,
0,
0,
0,
0,
0,
0,
0,
0,
0,
0,
0,
0,
0,
0,
#ENDOFDATA   :

File: SPI MM2 Zircon[5][4].msa
#FORMAT      : EMSA/MAS Spectral Data File
#VERSION     : 1.0
#TITLE       : SPI MM2 Zircon[5][all]
#DATE        : 13-MAR-2025
#TIME        : 13:50
#OWNER       : Unknown
#NPOINTS     : 4096
#NCOLUMNS    : 1
#XUNITS      : eV
#YUNITS      : counts
#DATATYPE    : Y
#XPERCHAN    : 9.99778
#OFFSET      : 1.69135
#BEAMKV      : 20
#SIGNALTYPE  : EDS
#ELEVANGLE   : 35
#AZIMANGLE   : 0
#LIVETIME    : 239.387
#REALTIME    : 256.9441
#PROBECUR    : 1.0264
#TAUWIND     : 0
#TDEADLYR    : 0
#TACTLYR     : 0.045
#TALWIND     : 0.025
#CHOFFSET    : 0.0
#XLABEL      : Energy (eV)
#YLABEL      : Counts
#XPOSITION   : -2.73758
#YPOSITION   : 6.68983
#ZPOSITION   : 31.03511
#EDSDET      : SD
##SPECIMEN   : SPI MM2 Zircon[5][all]
##DET_HASH   : 12273538-fd48-a23f-0a19-f1e6fa85caef
##CALIB_HASH : 6abaa72c-aa41-8738-0be9-f592914732f3
##WORKING    : 15.0 mm
##DET_NAME   : EDAX All
##DET_MODE   : MediumLE
#SPECTRUM    :
28,
696,
14796,
4489,
25301,
3382,
4319,
4932,
5569,
6318,
7102,
7824,
50985,
32645,
27893,
101744,
12206,
3400,
4195,
3205,
3054,
3114,
3220,
3124,
3147,
3210,
3111,
3211,
3092,
2976,
2971,
2704,
2642,
2626,
2469,
2481,
2528,
2374,
2345,
2216,
2182,
2147,
2088,
2049,
1916,
1879,
2037,
1837,
1756,
1768,
1680,
1595,
1582,
1656,
1597,
1507,
1664,
1458,
1233,
1316,
1193,
1170,
1167,
1139,
1223,
1201,
1056,
1011,
1010,
924,
912,
875,
826,
846,
795,
828,
780,
674,
738,
721,
636,
657,
571,
588,
573,
505,
515,
491,
466,
445,
392,
415,
396,
402,
391,
354,
325,
338,
282,
285,
285,
271,
253,
237,
238,
205,
219,
201,
188,
178,
173,
178,
443,
400,
150,
129,
112,
113,
98,
93,
80,
95,
68,
64,
76,
75,
102,
81,
41,
41,
31,
28,
27,
23,
29,
15,
14,
18,
19,
9,
11,
4,
2,
3,
1,
1,
1,
0,
2,
0,
0,
1,
1,
0,
0,
0,
0,
0,
1,
0,
0,
0,
0,
0,
1,
0,
0,
0,
0,
1,
0,
0,
0,
1,
0,
0,
0,
0,
0,
0,
0,
0,
1,
0,
1,
0,
0,
0,
0,
0,
0,
0,
0,
0,
0,
0,
0,
0,
0,
0,
0,
0,
0,
0,
0,
0,
0,
0,
0,
0,
0,
0,
0,
0,
0,
0,
0,
0,
0,
0,
0,
0,
0,
0,
0,
0,
0,
0,
0,
0,
0,
0,
0,
0,
0,
0,
0,
0,
0,
0,
0,
0,
0,
0,
0,
0,
0,
0,
0,
0,
0,
0,
0,
0,
0,
0,
0,
0,
0,
0,
0,
0,
0,
0,
0,
0,
0,
0,
0,
0,
0,
0,
0,
0,
0,
0,
0,
0,
0,
0,
0,
0,
0,
0,
0,
0,
0,
0,
0,
0,
0,
0,
0,
0,
#ENDOFDATA   :

File: SPI MM2 Zircon[6][4].msa
#FORMAT      : EMSA/MAS Spectral Data File
#VERSION     : 1.0
#TITLE       : SPI MM2 Zircon[6][all]
#DATE        : 13-MAR-2025
#TIME        : 13:51
#OWNER       : Unknown
#NPOINTS     : 4096
#NCOLUMNS    : 1
#XUNITS      : eV
#YUNITS      : counts
#DATATYPE    : Y
#XPERCHAN    : 9.99778
#OFFSET      : 1.69135
#BEAMKV      : 20
#SIGNALTYPE  : EDS
#ELEVANGLE   : 35
#AZIMANGLE   : 0
#LIVETIME    : 239.736
#REALTIME    : 257.321
#PROBECUR    : 1.0264
#TAUWIND     : 0
#TDEADLYR    : 0
#TACTLYR     : 0.045
#TALWIND     : 0.025
#CHOFFSET    : 0.0
#XLABEL      : Energy (eV)
#YLABEL      : Counts
#XPOSITION   : -2.69897
#YPOSITION   : 6.61901
#ZPOSITION   : 31.03511
#EDSDET      : SD
##SPECIMEN   : SPI MM2 Zircon[6][all]
##DET_HASH   : 12273538-fd48-a23f-0a19-f1e6fa85caef
##CALIB_HASH : 6abaa72c-aa41-8738-0be9-f592914732f3
##WORKING    : 15.0 mm
##DET_NAME   : EDAX All
##DET_MODE   : MediumLE
#SPECTRUM    :
23,
677,
14586,
4516,
25331,
3383,
4406,
4776,
5499,
6408,
7060,
7881,
51344,
32503,
27751,
102356,
12391,
3302,
4111,
3201,
3051,
3154,
3242,
3116,
3099,
3205,
3119,
3325,
3037,
3103,
2964,
2818,
2795,
2634,
2499,
2497,
2429,
2457,
2292,
2228,
2240,
2071,
2088,
2022,
1926,
1996,
2071,
1877,
1732,
1647,
1670,
1660,
1611,
1568,
1614,
1433,
1609,
1453,
1290,
1249,
1234,
1231,
1184,
1118,
1171,
1145,
1032,
1086,
991,
933,
948,
854,
901,
836,
821,
803,
774,
733,
725,
701,
656,
626,
613,
555,
549,
545,
528,
524,
482,
424,
417,
456,
387,
421,
356,
370,
313,
305,
324,
299,
269,
245,
247,
251,
226,
218,
201,
206,
179,
159,
155,
211,
512,
394,
169,
118,
110,
97,
88,
113,
97,
87,
61,
57,
82,
90,
120,
66,
55,
40,
38,
44,
38,
26,
26,
19,
15,
14,
17,
10,
9,
4,
3,
0,
1,
1,
2,
0,
2,
1,
1,
0,
1,
1,
0,
0,
1,
0,
1,
0,
0,
0,
0,
0,
0,
0,
0,
0,
0,
0,
0,
0,
0,
0,
0,
0,
0,
0,
0,
0,
0,
0,
0,
0,
0,
0,
0,
0,
0,
1,
0,
0,
0,
0,
0,
0,
0,
0,
0,
0,
1,
0,
0,
0,
0,
0,
0,
1,
0,
0,
0,
0,
0,
0,
0,
0,
0,
0,
0,
0,
0,
0,
0,
0,
0,
0,
0,
0,
0,
0,
0,
0,
0,
0,
0,
0,
0,
0,
0,
0,
0,
0,
0,
0,
0,
0,
0,
0,
0,
0,
0,
0,
0,
0,
0,
0,
0,
0,
0,
0,
0,
0,
0,
0,
0,
0,
0,
0,
0,
0,
0,
0,
0,
0,
0,
0,
0,
0,
0,
0,
0,
0,
0,
0,
0,
0,
0,
0,
0,
0,
0,
0,
0,
0,
#ENDOFDATA   :

File: SPI MM2 Zircon[7][4].msa
#FORMAT      : EMSA/MAS Spectral Data File
#VERSION     : 1.0
#TITLE       : SPI MM2 Zircon[7][all]
#DATE        : 13-MAR-2025
#TIME        : 13:52
#OWNER       : Unknown
#NPOINTS     : 4096
#NCOLUMNS    : 1
#XUNITS      : eV
#YUNITS      : counts
#DATATYPE    : Y
#XPERCHAN    : 9.99778
#OFFSET      : 1.69135
#BEAMKV      : 20
#SIGNALTYPE  : EDS
#ELEVANGLE   : 35
#AZIMANGLE   : 0
#LIVETIME    : 239.472
#REALTIME    : 257.0025
#PROBECUR    : 1.0264
#TAUWIND     : 0
#TDEADLYR    : 0
#TACTLYR     : 0.045
#TALWIND     : 0.025
#CHOFFSET    : 0.0
#XLABEL      : Energy (eV)
#YLABEL      : Counts
#XPOSITION   : -2.68994
#YPOSITION   : 6.62533
#ZPOSITION   : 31.03511
#EDSDET      : SD
##SPECIMEN   : SPI MM2 Zircon[7][all]
##DET_HASH   : 12273538-fd48-a23f-0a19-f1e6fa85caef
##CALIB_HASH : 6abaa72c-aa41-8738-0be9-f592914732f3
##WORKING    : 15.0 mm
##DET_NAME   : EDAX All
##DET_MODE   : MediumLE
#SPECTRUM    :
23,
724,
14497,
4407,
25222,
3496,
4393,
4767,
5479,
6475,
7080,
7790,
50807,
32161,
27746,
102042,
12134,
3320,
4119,
3004,
3081,
3186,
3112,
3132,
3153,
3241,
3043,
3265,
3052,
2977,
2947,
2762,
2742,
2615,
2546,
2554,
2435,
2456,
2314,
2343,
2225,
2191,
2128,
2116,
2007,
2019,
2151,
1850,
1858,
1664,
1670,
1689,
1576,
1601,
1521,
1421,
1635,
1493,
1312,
1275,
1240,
1189,
1178,
1102,
1194,
1141,
1083,
1014,
999,
975,
913,
864,
858,
849,
847,
851,
801,
741,
719,
663,
665,
621,
650,
562,
519,
515,
510,
501,
506,
478,
412,
411,
387,
402,
353,
377,
356,
326,
299,
283,
268,
289,
247,
261,
228,
225,
202,
197,
173,
168,
173,
179,
481,
344,
173,
123,
128,
87,
111,
82,
87,
89,
72,
56,
79,
84,
103,
60,
49,
52,
43,
37,
27,
28,
33,
26,
15,
24,
12,
6,
6,
6,
2,
2,
1,
0,
0,
0,
1,
0,
1,
0,
0,
0,
1,
1,
0,
0,
0,
0,
0,
0,
0,
0,
0,
0,
0,
0,
0,
0,
0,
0,
0,
0,
0,
0,
0,
0,
0,
0,
0,
0,
0,
0,
0,
0,
0,
0,
0,
0,
0,
0,
0,
0,
0,
0,
0,
0,
0,
0,
0,
0,
0,
0,
0,
0,
0,
0,
1,
0,
0,
0,
0,
0,
0,
0,
0,
0,
0,
0,
0,
0,
0,
0,
0,
0,
0,
0,
0,
0,
0,
0,
0,
0,
0,
0,
0,
0,
0,
0,
0,
0,
0,
0,
0,
0,
0,
0,
0,
0,
0,
0,
0,
0,
0,
0,
0,
0,
0,
0,
0,
0,
0,
0,
0,
0,
0,
0,
0,
0,
0,
0,
0,
0,
0,
0,
0,
0,
0,
0,
0,
0,
0,
0,
0,
0,
0,
0,
0,
0,
0,
0,
0,
0,
#ENDOFDATA   :