Folder: spex_quant/N132962/Quantification/20 keV/MMM2 (part 12)

File: SPI MM2 SPI Pentlandite[1][4].msa
#FORMAT      : EMSA/MAS Spectral Data File
#VERSION     : 1.0
#TITLE       : SPI MM2 SPI Pentlandite[1][all]
#DATE        : 13-MAR-2025
#TIME        : 10:33
#OWNER       : Unknown
#NPOINTS     : 4096
#NCOLUMNS    : 1
#XUNITS      : eV
#YUNITS      : counts
#DATATYPE    : Y
#XPERCHAN    : 9.99778
#OFFSET      : 1.69135
#BEAMKV      : 20
#SIGNALTYPE  : EDS
#ELEVANGLE   : 35
#AZIMANGLE   : 0
#LIVETIME    : 239.895
#REALTIME    : 260.204
#PROBECUR    : 1.02606
#TAUWIND     : 0
#TDEADLYR    : 0
#TACTLYR     : 0.045
#TALWIND     : 0.025
#CHOFFSET    : 0.0
#XLABEL      : Energy (eV)
#YLABEL      : Counts
#XPOSITION   : 3.92462
#YPOSITION   : -0.26056
#ZPOSITION   : 31.0351
#EDSDET      : SD
##SPECIMEN   : SPI MM2 SPI Pentlandite[1][all]
##D2STDCMP   : SPI Pentlandite,(S:32.89),(Fe:30.88),(Co:0.43),(Ni:35.61)
##DET_HASH   : 12273538-fd48-a23f-0a19-f1e6fa85caef
##CALIB_HASH : 6abaa72c-aa41-8738-0be9-f592914732f3
##WORKING    : 15.0 mm
##DET_NAME   : EDAX All
##DET_MODE   : MediumLE
#SPECTRUM    :
15,
456,
11776,
3249,
13386,
50595,
63379,
3358,
3527,
3939,
4720,
5206,
5472,
5934,
5309,
5823,
62146,
49733,
10351,
3708,
3847,
3740,
3832,
3789,
3554,
3529,
3511,
3429,
3358,
3358,
3302,
3166,
3062,
3401,
2845,
2830,
2727,
2622,
2690,
2523,
2447,
2571,
2252,
2271,
2389,
17208,
50387,
2539,
2074,
2576,
7761,
4743,
2140,
35123,
17486,
1629,
1450,
1473,
2069,
7323,
1864,
1168,
1262,
1153,
1069,
1037,
1034,
989,
941,
1038,
1073,
913,
853,
796,
809,
788,
765,
773,
702,
688,
694,
636,
614,
609,
628,
589,
532,
517,
519,
469,
494,
444,
435,
419,
395,
379,
407,
342,
330,
356,
301,
325,
258,
243,
246,
232,
210,
233,
181,
174,
166,
153,
146,
167,
135,
136,
127,
126,
112,
94,
91,
68,
77,
71,
75,
61,
63,
51,
54,
46,
39,
40,
44,
31,
23,
20,
23,
10,
12,
12,
14,
8,
4,
3,
2,
0,
1,
2,
0,
0,
2,
0,
0,
1,
1,
2,
1,
2,
0,
0,
1,
1,
0,
1,
1,
0,
0,
0,
0,
0,
0,
0,
0,
0,
1,
0,
0,
0,
0,
1,
0,
0,
0,
0,
0,
0,
0,
0,
0,
0,
0,
1,
0,
0,
0,
0,
0,
0,
0,
0,
0,
0,
0,
0,
0,
0,
0,
1,
0,
0,
0,
0,
0,
0,
0,
0,
0,
0,
0,
0,
0,
0,
0,
0,
0,
0,
0,
0,
0,
0,
0,
0,
0,
0,
0,
0,
0,
0,
0,
0,
0,
0,
0,
0,
0,
0,
0,
0,
0,
0,
0,
0,
0,
0,
0,
0,
0,
0,
0,
0,
0,
0,
0,
0,
0,
0,
0,
0,
0,
0,
0,
0,
0,
0,
0,
0,
0,
0,
0,
0,
0,
0,
0,
0,
0,
0,
0,
0,
0,
0,
0,
0,
0,
0,
#ENDOFDATA   :

File: SPI MM2 SPI Pentlandite[2][4].msa
#FORMAT      : EMSA/MAS Spectral Data File
#VERSION     : 1.0
#TITLE       : SPI MM2 SPI Pentlandite[2][all]
#DATE        : 13-MAR-2025
#TIME        : 10:34
#OWNER       : Unknown
#NPOINTS     : 4096
#NCOLUMNS    : 1
#XUNITS      : eV
#YUNITS      : counts
#DATATYPE    : Y
#XPERCHAN    : 9.99778
#OFFSET      : 1.69135
#BEAMKV      : 20
#SIGNALTYPE  : EDS
#ELEVANGLE   : 35
#AZIMANGLE   : 0
#LIVETIME    : 239.953
#REALTIME    : 260.268
#PROBECUR    : 1.02606
#TAUWIND     : 0
#TDEADLYR    : 0
#TACTLYR     : 0.045
#TALWIND     : 0.025
#CHOFFSET    : 0.0
#XLABEL      : Energy (eV)
#YLABEL      : Counts
#XPOSITION   : 3.8895
#YPOSITION   : -0.3115
#ZPOSITION   : 31.0351
#EDSDET      : SD
##SPECIMEN   : SPI MM2 SPI Pentlandite[2][all]
##D2STDCMP   : SPI Pentlandite,(S:32.89),(Fe:30.88),(Co:0.43),(Ni:35.61)
##DET_HASH   : 12273538-fd48-a23f-0a19-f1e6fa85caef
##CALIB_HASH : 6abaa72c-aa41-8738-0be9-f592914732f3
##WORKING    : 15.0 mm
##DET_NAME   : EDAX All
##DET_MODE   : MediumLE
#SPECTRUM    :
35,
460,
11899,
3288,
13648,
50061,
63398,
3488,
3582,
4087,
4698,
5207,
5534,
5878,
5396,
5639,
62907,
49488,
10311,
3718,
3863,
3938,
3824,
3641,
3596,
3517,
3604,
3356,
3374,
3277,
3076,
3119,
2989,
3382,
2924,
2739,
2715,
2693,
2613,
2563,
2369,
2389,
2361,
2237,
2386,
17315,
50479,
2532,
1953,
2641,
7965,
4577,
2238,
35314,
17578,
1592,
1465,
1501,
2062,
7414,
1795,
1234,
1202,
1130,
1127,
1088,
1015,
997,
943,
980,
1020,
934,
831,
846,
869,
799,
758,
763,
674,
651,
595,
616,
615,
624,
541,
547,
566,
508,
496,
474,
431,
476,
409,
409,
389,
331,
378,
328,
336,
354,
317,
281,
262,
234,
237,
243,
216,
217,
203,
188,
174,
169,
106,
158,
142,
106,
100,
123,
115,
101,
107,
95,
64,
76,
73,
59,
67,
57,
47,
54,
42,
37,
25,
28,
24,
26,
19,
15,
9,
14,
6,
4,
4,
2,
0,
0,
2,
1,
3,
2,
1,
1,
2,
0,
1,
0,
3,
0,
0,
0,
0,
1,
0,
1,
0,
0,
0,
0,
0,
1,
0,
1,
1,
0,
0,
0,
1,
0,
1,
0,
0,
0,
0,
0,
0,
0,
0,
0,
0,
0,
0,
0,
0,
1,
0,
0,
0,
0,
0,
0,
0,
0,
0,
0,
0,
0,
0,
0,
0,
0,
0,
0,
0,
0,
0,
0,
0,
0,
0,
0,
0,
0,
0,
0,
0,
0,
0,
0,
0,
0,
0,
0,
0,
0,
0,
0,
0,
0,
0,
0,
0,
0,
0,
0,
0,
0,
0,
0,
0,
0,
0,
0,
0,
0,
0,
0,
0,
0,
0,
0,
0,
0,
0,
0,
0,
0,
0,
0,
0,
0,
0,
0,
0,
0,
0,
0,
0,
0,
0,
0,
0,
0,
0,
0,
0,
0,
0,
0,
0,
0,
0,
0,
0,
0,
#ENDOFDATA   :

File: SPI MM2 SPI Pentlandite[3][4].msa
#FORMAT      : EMSA/MAS Spectral Data File
#VERSION     : 1.0
#TITLE       : SPI MM2 SPI Pentlandite[3][all]
#DATE        : 13-MAR-2025
#TIME        : 10:35
#OWNER       : Unknown
#NPOINTS     : 4096
#NCOLUMNS    : 1
#XUNITS      : eV
#YUNITS      : counts
#DATATYPE    : Y
#XPERCHAN    : 9.99778
#OFFSET      : 1.69135
#BEAMKV      : 20
#SIGNALTYPE  : EDS
#ELEVANGLE   : 35
#AZIMANGLE   : 0
#LIVETIME    : 239.952
#REALTIME    : 260.264
#PROBECUR    : 1.02606
#TAUWIND     : 0
#TDEADLYR    : 0
#TACTLYR     : 0.045
#TALWIND     : 0.025
#CHOFFSET    : 0.0
#XLABEL      : Energy (eV)
#YLABEL      : Counts
#XPOSITION   : 3.93894
#YPOSITION   : -0.37837
#ZPOSITION   : 31.0351
#EDSDET      : SD
##SPECIMEN   : SPI MM2 SPI Pentlandite[3][all]
##D2STDCMP   : SPI Pentlandite,(S:32.89),(Fe:30.88),(Co:0.43),(Ni:35.61)
##DET_HASH   : 12273538-fd48-a23f-0a19-f1e6fa85caef
##CALIB_HASH : 6abaa72c-aa41-8738-0be9-f592914732f3
##WORKING    : 15.0 mm
##DET_NAME   : EDAX All
##DET_MODE   : MediumLE
#SPECTRUM    :
26,
472,
11643,
3377,
13639,
50080,
62782,
3483,
3452,
4095,
4584,
5199,
5698,
5866,
5325,
5699,
62294,
48942,
10514,
3870,
3814,
3848,
3855,
3682,
3680,
3530,
3415,
3363,
3331,
3272,
3185,
3167,
3089,
3489,
2955,
2860,
2771,
2715,
2646,
2535,
2411,
2481,
2198,
2312,
2447,
17160,
50646,
2511,
1939,
2565,
8111,
4708,
2292,
35170,
17202,
1609,
1477,
1484,
2162,
7308,
1810,
1102,
1267,
1117,
1036,
1010,
1057,
1023,
982,
987,
998,
892,
902,
808,
812,
774,
802,
705,
678,
656,
694,
670,
644,
585,
555,
564,
526,
503,
520,
493,
436,
424,
414,
391,
357,
353,
351,
358,
325,
323,
317,
271,
255,
252,
249,
229,
223,
232,
201,
171,
160,
190,
163,
150,
128,
135,
125,
125,
105,
83,
69,
75,
94,
74,
56,
65,
67,
40,
43,
41,
49,
30,
22,
40,
32,
16,
24,
17,
10,
16,
6,
6,
3,
2,
2,
1,
2,
2,
2,
2,
3,
1,
2,
1,
0,
2,
0,
1,
0,
1,
1,
1,
0,
1,
0,
0,
0,
0,
0,
0,
0,
0,
0,
0,
0,
0,
0,
0,
1,
0,
0,
0,
0,
0,
1,
0,
0,
0,
0,
0,
0,
0,
0,
0,
0,
0,
0,
0,
0,
0,
0,
0,
0,
0,
0,
0,
0,
0,
0,
0,
0,
0,
0,
1,
0,
0,
0,
0,
0,
0,
0,
0,
0,
0,
0,
0,
0,
0,
0,
0,
0,
0,
0,
0,
0,
0,
0,
0,
0,
0,
0,
0,
0,
0,
0,
0,
0,
0,
0,
0,
0,
0,
0,
0,
0,
0,
0,
0,
0,
0,
0,
0,
0,
0,
0,
0,
0,
0,
0,
0,
0,
0,
0,
0,
0,
0,
0,
0,
0,
0,
0,
0,
0,
0,
0,
0,
0,
0,
0,
0,
0,
0,
0,
0,
#ENDOFDATA   :

File: SPI MM2 SPI Pentlandite[4][4].msa
#FORMAT      : EMSA/MAS Spectral Data File
#VERSION     : 1.0
#TITLE       : SPI MM2 SPI Pentlandite[4][all]
#DATE        : 13-MAR-2025
#TIME        : 10:36
#OWNER       : Unknown
#NPOINTS     : 4096
#NCOLUMNS    : 1
#XUNITS      : eV
#YUNITS      : counts
#DATATYPE    : Y
#XPERCHAN    : 9.99778
#OFFSET      : 1.69135
#BEAMKV      : 20
#SIGNALTYPE  : EDS
#ELEVANGLE   : 35
#AZIMANGLE   : 0
#LIVETIME    : 239.903
#REALTIME    : 260.208
#PROBECUR    : 1.02606
#TAUWIND     : 0
#TDEADLYR    : 0
#TACTLYR     : 0.045
#TALWIND     : 0.025
#CHOFFSET    : 0.0
#XLABEL      : Energy (eV)
#YLABEL      : Counts
#XPOSITION   : 3.91682
#YPOSITION   : -0.29173
#ZPOSITION   : 31.0351
#EDSDET      : SD
##SPECIMEN   : SPI MM2 SPI Pentlandite[4][all]
##D2STDCMP   : SPI Pentlandite,(S:32.89),(Fe:30.88),(Co:0.43),(Ni:35.61)
##DET_HASH   : 12273538-fd48-a23f-0a19-f1e6fa85caef
##CALIB_HASH : 6abaa72c-aa41-8738-0be9-f592914732f3
##WORKING    : 15.0 mm
##DET_NAME   : EDAX All
##DET_MODE   : MediumLE
#SPECTRUM    :
23,
483,
11802,
3254,
13399,
50996,
63217,
3432,
3474,
4068,
4749,
5221,
5664,
5965,
5307,
5841,
62290,
49922,
10404,
3792,
3937,
3838,
3811,
3735,
3643,
3536,
3566,
3429,
3409,
3281,
3137,
3184,
3072,
3390,
2995,
2769,
2634,
2645,
2620,
2651,
2369,
2555,
2273,
2328,
2387,
17322,
50248,
2522,
1995,
2570,
7820,
4688,
2268,
35028,
17560,
1631,
1470,
1510,
2055,
7354,
1799,
1187,
1217,
1106,
1061,
1015,
1043,
1008,
945,
995,
1029,
924,
851,
838,
799,
823,
800,
820,
749,
715,
677,
612,
577,
600,
529,
572,
550,
464,
452,
463,
456,
472,
444,
423,
361,
352,
343,
338,
336,
311,
274,
258,
250,
233,
251,
233,
234,
222,
203,
186,
146,
159,
173,
138,
149,
121,
128,
126,
125,
101,
82,
71,
87,
71,
85,
75,
45,
59,
46,
45,
47,
38,
38,
29,
33,
24,
18,
16,
9,
16,
6,
5,
5,
3,
1,
1,
1,
0,
0,
2,
0,
2,
1,
0,
1,
1,
0,
1,
0,
3,
0,
0,
1,
0,
0,
0,
0,
0,
0,
2,
0,
0,
0,
1,
0,
1,
0,
0,
0,
0,
1,
0,
0,
0,
0,
0,
0,
0,
0,
0,
0,
0,
0,
0,
0,
0,
0,
0,
0,
0,
0,
0,
0,
0,
0,
0,
0,
0,
0,
0,
0,
0,
0,
0,
0,
0,
0,
0,
0,
0,
0,
0,
0,
0,
0,
0,
0,
0,
0,
0,
0,
0,
0,
0,
0,
0,
0,
1,
0,
0,
0,
0,
0,
0,
0,
0,
0,
0,
0,
0,
0,
0,
0,
0,
0,
0,
0,
0,
0,
0,
0,
0,
0,
0,
0,
0,
0,
0,
0,
0,
0,
0,
0,
0,
0,
0,
0,
0,
0,
0,
0,
0,
0,
0,
0,
0,
0,
0,
0,
0,
0,
0,
0,
0,
#ENDOFDATA   :

File: SPI MM2 SPI Pentlandite[5][4].msa
#FORMAT      : EMSA/MAS Spectral Data File
#VERSION     : 1.0
#TITLE       : SPI MM2 SPI Pentlandite[5][all]
#DATE        : 13-MAR-2025
#TIME        : 10:37
#OWNER       : Unknown
#NPOINTS     : 4096
#NCOLUMNS    : 1
#XUNITS      : eV
#YUNITS      : counts
#DATATYPE    : Y
#XPERCHAN    : 9.99778
#OFFSET      : 1.69135
#BEAMKV      : 20
#SIGNALTYPE  : EDS
#ELEVANGLE   : 35
#AZIMANGLE   : 0
#LIVETIME    : 239.963
#REALTIME    : 260.265
#PROBECUR    : 1.02606
#TAUWIND     : 0
#TDEADLYR    : 0
#TACTLYR     : 0.045
#TALWIND     : 0.025
#CHOFFSET    : 0.0
#XLABEL      : Energy (eV)
#YLABEL      : Counts
#XPOSITION   : 3.94259
#YPOSITION   : -0.30857
#ZPOSITION   : 31.0351
#EDSDET      : SD
##SPECIMEN   : SPI MM2 SPI Pentlandite[5][all]
##D2STDCMP   : SPI Pentlandite,(S:32.89),(Fe:30.88),(Co:0.43),(Ni:35.61)
##DET_HASH   : 12273538-fd48-a23f-0a19-f1e6fa85caef
##CALIB_HASH : 6abaa72c-aa41-8738-0be9-f592914732f3
##WORKING    : 15.0 mm
##DET_NAME   : EDAX All
##DET_MODE   : MediumLE
#SPECTRUM    :
32,
469,
11756,
3245,
13343,
50063,
63151,
3422,
3490,
4142,
4740,
5118,
5624,
5882,
5411,
5682,
62576,
49226,
10571,
3830,
3802,
3852,
3848,
3633,
3664,
3542,
3472,
3468,
3363,
3299,
3223,
3114,
2959,
3390,
2942,
2756,
2719,
2623,
2718,
2554,
2532,
2459,
2252,
2230,
2342,
17323,
50334,
2455,
1998,
2545,
7884,
4650,
2204,
35073,
17521,
1650,
1493,
1465,
2056,
7535,
1825,
1145,
1250,
1134,
1089,
1090,
1020,
991,
953,
966,
1069,
934,
821,
856,
800,
835,
778,
743,
767,
697,
636,
691,
612,
651,
542,
530,
543,
499,
522,
498,
425,
472,
412,
433,
371,
367,
366,
359,
287,
312,
258,
280,
279,
239,
244,
211,
216,
209,
199,
188,
174,
144,
158,
140,
135,
135,
132,
106,
117,
105,
97,
87,
91,
84,
65,
76,
45,
66,
44,
38,
48,
42,
38,
35,
22,
20,
22,
17,
17,
17,
5,
5,
3,
0,
0,
1,
2,
0,
1,
2,
1,
0,
0,
0,
0,
0,
1,
0,
0,
1,
0,
0,
1,
1,
1,
0,
0,
0,
0,
1,
0,
0,
0,
0,
0,
0,
0,
0,
1,
0,
0,
0,
0,
0,
0,
0,
0,
0,
0,
0,
0,
0,
0,
0,
0,
0,
0,
0,
0,
0,
0,
0,
0,
0,
0,
0,
0,
0,
0,
0,
0,
0,
0,
1,
0,
0,
0,
0,
0,
0,
0,
0,
0,
0,
0,
0,
0,
0,
0,
0,
0,
0,
0,
0,
0,
0,
0,
0,
0,
0,
0,
0,
0,
0,
0,
0,
0,
0,
0,
0,
0,
0,
0,
0,
0,
0,
0,
0,
0,
0,
0,
0,
0,
0,
0,
0,
0,
0,
0,
0,
0,
0,
0,
0,
0,
0,
0,
0,
0,
0,
0,
0,
0,
0,
0,
0,
0,
0,
0,
0,
0,
0,
0,
0,
#ENDOFDATA   :

File: SPI MM2 SPI Pentlandite[6][4].msa
#FORMAT      : EMSA/MAS Spectral Data File
#VERSION     : 1.0
#TITLE       : SPI MM2 SPI Pentlandite[6][all]
#DATE        : 13-MAR-2025
#TIME        : 10:39
#OWNER       : Unknown
#NPOINTS     : 4096
#NCOLUMNS    : 1
#XUNITS      : eV
#YUNITS      : counts
#DATATYPE    : Y
#XPERCHAN    : 9.99778
#OFFSET      : 1.69135
#BEAMKV      : 20
#SIGNALTYPE  : EDS
#ELEVANGLE   : 35
#AZIMANGLE   : 0
#LIVETIME    : 239.9602
#REALTIME    : 260.266
#PROBECUR    : 1.02606
#TAUWIND     : 0
#TDEADLYR    : 0
#TACTLYR     : 0.045
#TALWIND     : 0.025
#CHOFFSET    : 0.0
#XLABEL      : Energy (eV)
#YLABEL      : Counts
#XPOSITION   : 3.93263
#YPOSITION   : -0.37408
#ZPOSITION   : 31.0351
#EDSDET      : SD
##SPECIMEN   : SPI MM2 SPI Pentlandite[6][all]
##D2STDCMP   : SPI Pentlandite,(S:32.89),(Fe:30.88),(Co:0.43),(Ni:35.61)
##DET_HASH   : 12273538-fd48-a23f-0a19-f1e6fa85caef
##CALIB_HASH : 6abaa72c-aa41-8738-0be9-f592914732f3
##WORKING    : 15.0 mm
##DET_NAME   : EDAX All
##DET_MODE   : MediumLE
#SPECTRUM    :
24,
464,
11715,
3261,
13710,
50062,
62919,
3322,
3440,
4030,
4699,
5303,
5561,
5762,
5475,
5731,
62770,
48850,
10322,
3684,
3764,
4009,
3875,
3730,
3622,
3560,
3553,
3514,
3376,
3405,
3233,
2988,
3165,
3480,
2976,
2818,
2670,
2699,
2597,
2531,
2492,
2433,
2330,
2265,
2415,
17390,
50457,
2491,
2146,
2618,
7913,
4661,
2262,
35031,
17385,
1684,
1455,
1525,
2116,
7347,
1747,
1189,
1252,
1180,
1070,
1046,
977,
1044,
1002,
1007,
1069,
874,
826,
846,
821,
816,
731,
723,
718,
691,
703,
645,
643,
602,
551,
575,
550,
503,
457,
501,
463,
517,
434,
408,
349,
367,
375,
312,
351,
319,
296,
288,
280,
264,
232,
251,
229,
208,
176,
181,
168,
160,
170,
144,
147,
132,
124,
131,
109,
115,
74,
82,
68,
74,
69,
72,
60,
61,
51,
43,
42,
33,
39,
32,
28,
28,
17,
13,
18,
14,
6,
12,
4,
0,
5,
0,
6,
1,
1,
2,
2,
2,
0,
2,
1,
0,
0,
0,
1,
1,
1,
0,
1,
0,
0,
1,
0,
0,
2,
2,
0,
0,
0,
0,
0,
0,
0,
0,
0,
1,
0,
0,
1,
0,
0,
0,
0,
0,
0,
0,
0,
0,
0,
0,
0,
1,
0,
0,
0,
0,
0,
0,
0,
0,
0,
0,
0,
0,
0,
0,
0,
0,
0,
0,
0,
0,
0,
0,
0,
0,
0,
0,
0,
0,
0,
0,
0,
0,
0,
0,
0,
0,
0,
0,
0,
0,
0,
0,
0,
0,
0,
0,
0,
0,
0,
0,
0,
0,
0,
0,
0,
0,
0,
0,
0,
0,
0,
0,
0,
0,
0,
0,
0,
0,
0,
0,
0,
0,
0,
0,
0,
0,
0,
0,
0,
0,
0,
0,
0,
0,
0,
0,
0,
0,
0,
0,
0,
0,
0,
0,
0,
0,
0,
0,
#ENDOFDATA   :

File: SPI MM2 SPI Pentlandite[7][4].msa
#FORMAT      : EMSA/MAS Spectral Data File
#VERSION     : 1.0
#TITLE       : SPI MM2 SPI Pentlandite[7][all]
#DATE        : 13-MAR-2025
#TIME        : 10:40
#OWNER       : Unknown
#NPOINTS     : 4096
#NCOLUMNS    : 1
#XUNITS      : eV
#YUNITS      : counts
#DATATYPE    : Y
#XPERCHAN    : 9.99778
#OFFSET      : 1.69135
#BEAMKV      : 20
#SIGNALTYPE  : EDS
#ELEVANGLE   : 35
#AZIMANGLE   : 0
#LIVETIME    : 239.895
#REALTIME    : 260.21
#PROBECUR    : 1.02606
#TAUWIND     : 0
#TDEADLYR    : 0
#TACTLYR     : 0.045
#TALWIND     : 0.025
#CHOFFSET    : 0.0
#XLABEL      : Energy (eV)
#YLABEL      : Counts
#XPOSITION   : 3.97253
#YPOSITION   : -0.33325
#ZPOSITION   : 31.0351
#EDSDET      : SD
##SPECIMEN   : SPI MM2 SPI Pentlandite[7][all]
##D2STDCMP   : SPI Pentlandite,(S:32.89),(Fe:30.88),(Co:0.43),(Ni:35.61)
##DET_HASH   : 12273538-fd48-a23f-0a19-f1e6fa85caef
##CALIB_HASH : 6abaa72c-aa41-8738-0be9-f592914732f3
##WORKING    : 15.0 mm
##DET_NAME   : EDAX All
##DET_MODE   : MediumLE
#SPECTRUM    :
27,
441,
11863,
3322,
13639,
50417,
62880,
3370,
3631,
4185,
4666,
5203,
5643,
5750,
5368,
5757,
62786,
49226,
10371,
3732,
3844,
3844,
3954,
3795,
3584,
3457,
3532,
3354,
3272,
3283,
3260,
3076,
2950,
3407,
2966,
2881,
2681,
2685,
2570,
2521,
2405,
2416,
2331,
2291,
2423,
17255,
50388,
2569,
2018,
2617,
7829,
4738,
2300,
35281,
17476,
1567,
1367,
1481,
2127,
7301,
1852,
1170,
1207,
1136,
1003,
1098,
998,
1008,
992,
1004,
1012,
893,
845,
819,
829,
800,
731,
755,
685,
665,
675,
598,
645,
557,
581,
584,
527,
535,
462,
471,
457,
417,
431,
394,
361,
381,
334,
321,
336,
345,
301,
295,
248,
240,
243,
238,
247,
224,
202,
194,
160,
160,
162,
130,
117,
137,
105,
118,
98,
85,
96,
88,
92,
77,
57,
71,
56,
45,
64,
52,
41,
31,
23,
28,
33,
27,
17,
21,
15,
11,
6,
12,
0,
5,
1,
4,
4,
0,
0,
1,
0,
0,
2,
1,
0,
1,
2,
2,
0,
1,
1,
2,
0,
1,
1,
1,
2,
0,
0,
0,
1,
0,
1,
0,
1,
0,
0,
0,
0,
0,
0,
0,
0,
0,
0,
0,
0,
0,
0,
0,
0,
0,
0,
0,
0,
0,
0,
0,
0,
1,
0,
0,
0,
0,
0,
0,
0,
0,
0,
0,
0,
0,
0,
0,
0,
0,
0,
0,
0,
0,
0,
0,
0,
0,
0,
0,
0,
0,
0,
0,
0,
0,
0,
0,
0,
0,
0,
0,
0,
0,
0,
0,
0,
0,
0,
0,
0,
0,
0,
0,
0,
0,
0,
0,
0,
0,
0,
0,
0,
0,
0,
0,
0,
0,
0,
0,
0,
0,
0,
0,
0,
0,
0,
0,
0,
0,
0,
0,
0,
0,
0,
0,
0,
0,
0,
0,
0,
0,
0,
0,
0,
0,
0,
0,
#ENDOFDATA   :

File: SPI MM2 SPI Phlogpite[0][4].msa
#FORMAT      : EMSA/MAS Spectral Data File
#VERSION     : 1.0
#TITLE       : SPI MM2 SPI Phlogpite[0][all]
#DATE        : 13-MAR-2025
#TIME        : 10:41
#OWNER       : Unknown
#NPOINTS     : 4096
#NCOLUMNS    : 1
#XUNITS      : eV
#YUNITS      : counts
#DATATYPE    : Y
#XPERCHAN    : 9.99778
#OFFSET      : 1.69135
#BEAMKV      : 20
#SIGNALTYPE  : EDS
#ELEVANGLE   : 35
#AZIMANGLE   : 0
#LIVETIME    : 239.878
#REALTIME    : 254.756
#PROBECUR    : 1.02606
#TAUWIND     : 0
#TDEADLYR    : 0
#TACTLYR     : 0.045
#TALWIND     : 0.025
#CHOFFSET    : 0.0
#XLABEL      : Energy (eV)
#YLABEL      : Counts
#XPOSITION   : 1.50754
#YPOSITION   : -0.33326
#ZPOSITION   : 31.0351
#EDSDET      : SD
##SPECIMEN   : SPI MM2 SPI Phlogpite[0][all]
##D2STDCMP   : SPI Phlogpite,(H:0.48),(O:46.01),(Mg:17.47),(Al:6.47),(Si:20.19),(K:9.37)
##DET_HASH   : 12273538-fd48-a23f-0a19-f1e6fa85caef
##CALIB_HASH : 6abaa72c-aa41-8738-0be9-f592914732f3
##WORKING    : 15.0 mm
##DET_NAME   : EDAX All
##DET_MODE   : MediumLE
#SPECTRUM    :
27,
196,
10079,
5297,
51335,
7205,
2835,
3925,
4574,
109457,
6400,
19598,
39888,
19861,
2514,
2495,
2808,
2422,
2585,
2482,
2389,
2454,
2285,
6432,
24619,
2945,
4424,
1873,
1805,
1730,
1619,
1650,
2742,
1559,
1557,
1682,
1439,
1423,
1302,
1197,
1190,
1123,
1437,
1085,
1042,
3084,
7801,
989,
942,
932,
1606,
1199,
772,
785,
740,
686,
677,
625,
633,
636,
558,
560,
603,
523,
531,
491,
477,
445,
456,
451,
422,
388,
400,
369,
355,
330,
342,
353,
316,
301,
304,
281,
270,
296,
241,
216,
243,
226,
180,
217,
187,
175,
167,
148,
153,
137,
152,
136,
146,
119,
110,
114,
105,
93,
90,
82,
79,
75,
83,
75,
72,
66,
66,
50,
49,
45,
55,
33,
41,
51,
35,
20,
30,
27,
33,
30,
17,
13,
13,
14,
14,
12,
8,
13,
7,
9,
5,
5,
4,
5,
1,
1,
0,
0,
0,
0,
0,
0,
0,
0,
0,
0,
0,
0,
0,
1,
0,
0,
0,
0,
0,
0,
0,
0,
0,
0,
0,
0,
0,
0,
0,
0,
0,
0,
0,
0,
0,
0,
0,
0,
0,
0,
0,
0,
0,
0,
0,
0,
0,
0,
0,
0,
0,
0,
0,
0,
0,
0,
0,
0,
0,
0,
0,
0,
0,
0,
0,
0,
0,
0,
0,
0,
0,
0,
0,
0,
0,
0,
0,
0,
0,
0,
0,
0,
0,
0,
0,
0,
0,
0,
0,
0,
0,
0,
0,
0,
0,
0,
0,
0,
0,
0,
0,
0,
0,
0,
0,
0,
0,
0,
0,
0,
0,
0,
0,
0,
0,
0,
0,
0,
0,
0,
0,
0,
0,
0,
0,
0,
0,
0,
0,
0,
0,
0,
0,
0,
0,
0,
0,
0,
0,
0,
0,
0,
0,
0,
0,
0,
0,
0,
0,
0,
0,
0,
#ENDOFDATA   :

File: SPI MM2 SPI Phlogpite[1][4].msa
#FORMAT      : EMSA/MAS Spectral Data File
#VERSION     : 1.0
#TITLE       : SPI MM2 SPI Phlogpite[1][all]
#DATE        : 13-MAR-2025
#TIME        : 10:42
#OWNER       : Unknown
#NPOINTS     : 4096
#NCOLUMNS    : 1
#XUNITS      : eV
#YUNITS      : counts
#DATATYPE    : Y
#XPERCHAN    : 9.99778
#OFFSET      : 1.69135
#BEAMKV      : 20
#SIGNALTYPE  : EDS
#ELEVANGLE   : 35
#AZIMANGLE   : 0
#LIVETIME    : 239.785
#REALTIME    : 254.637
#PROBECUR    : 1.02606
#TAUWIND     : 0
#TDEADLYR    : 0
#TACTLYR     : 0.045
#TALWIND     : 0.025
#CHOFFSET    : 0.0
#XLABEL      : Energy (eV)
#YLABEL      : Counts
#XPOSITION   : 1.49522
#YPOSITION   : -0.38196
#ZPOSITION   : 31.0351
#EDSDET      : SD
##SPECIMEN   : SPI MM2 SPI Phlogpite[1][all]
##D2STDCMP   : SPI Phlogpite,(H:0.48),(O:46.01),(Mg:17.47),(Al:6.47),(Si:20.19),(K:9.37)
##DET_HASH   : 12273538-fd48-a23f-0a19-f1e6fa85caef
##CALIB_HASH : 6abaa72c-aa41-8738-0be9-f592914732f3
##WORKING    : 15.0 mm
##DET_NAME   : EDAX All
##DET_MODE   : MediumLE
#SPECTRUM    :
25,
204,
9943,
5192,
51186,
7302,
2798,
3977,
4780,
108639,
6291,
19320,
40235,
19853,
2430,
2444,
2755,
2552,
2557,
2437,
2403,
2364,
2273,
6565,
24720,
2921,
4460,
1842,
1784,
1764,
1670,
1607,
2610,
1546,
1590,
1681,
1453,
1431,
1207,
1263,
1171,
1164,
1365,
1009,
1017,
3172,
7881,
965,
902,
919,
1578,
1162,
750,
878,
794,
696,
665,
689,
640,
594,
617,
593,
572,
492,
525,
519,
473,
459,
442,
463,
421,
411,
398,
364,
354,
304,
356,
322,
324,
323,
279,
287,
249,
232,
258,
202,
225,
198,
213,
217,
195,
174,
181,
183,
158,
145,
135,
113,
133,
103,
120,
108,
76,
115,
107,
76,
97,
79,
69,
79,
55,
62,
59,
46,
47,
45,
48,
46,
34,
38,
29,
22,
35,
18,
21,
36,
24,
19,
15,
12,
12,
11,
13,
9,
3,
5,
10,
7,
5,
2,
2,
1,
0,
0,
1,
0,
1,
0,
0,
0,
0,
0,
0,
0,
0,
0,
0,
0,
0,
0,
0,
0,
0,
0,
0,
0,
0,
0,
0,
0,
0,
0,
0,
0,
0,
0,
0,
0,
0,
0,
0,
0,
0,
0,
0,
0,
0,
0,
0,
0,
0,
0,
0,
0,
0,
0,
0,
0,
0,
0,
0,
0,
0,
0,
0,
0,
0,
0,
0,
0,
0,
0,
0,
0,
0,
0,
0,
0,
0,
0,
0,
0,
0,
0,
0,
0,
0,
0,
0,
0,
0,
0,
0,
0,
0,
0,
0,
0,
0,
0,
0,
0,
0,
0,
0,
0,
0,
0,
0,
0,
0,
0,
0,
0,
0,
0,
0,
0,
0,
0,
0,
0,
0,
0,
0,
0,
0,
0,
0,
0,
0,
0,
0,
0,
0,
0,
0,
0,
0,
0,
0,
0,
0,
0,
0,
0,
0,
0,
0,
0,
0,
0,
0,
0,
#ENDOFDATA   :

File: SPI MM2 SPI Phlogpite[2][4].msa
#FORMAT      : EMSA/MAS Spectral Data File
#VERSION     : 1.0
#TITLE       : SPI MM2 SPI Phlogpite[2][all]
#DATE        : 13-MAR-2025
#TIME        : 10:43
#OWNER       : Unknown
#NPOINTS     : 4096
#NCOLUMNS    : 1
#XUNITS      : eV
#YUNITS      : counts
#DATATYPE    : Y
#XPERCHAN    : 9.99778
#OFFSET      : 1.69135
#BEAMKV      : 20
#SIGNALTYPE  : EDS
#ELEVANGLE   : 35
#AZIMANGLE   : 0
#LIVETIME    : 239.905
#REALTIME    : 254.765
#PROBECUR    : 1.02606
#TAUWIND     : 0
#TDEADLYR    : 0
#TACTLYR     : 0.045
#TALWIND     : 0.025
#CHOFFSET    : 0.0
#XLABEL      : Energy (eV)
#YLABEL      : Counts
#XPOSITION   : 1.48318
#YPOSITION   : -0.41863
#ZPOSITION   : 31.0351
#EDSDET      : SD
##SPECIMEN   : SPI MM2 SPI Phlogpite[2][all]
##D2STDCMP   : SPI Phlogpite,(H:0.48),(O:46.01),(Mg:17.47),(Al:6.47),(Si:20.19),(K:9.37)
##DET_HASH   : 12273538-fd48-a23f-0a19-f1e6fa85caef
##CALIB_HASH : 6abaa72c-aa41-8738-0be9-f592914732f3
##WORKING    : 15.0 mm
##DET_NAME   : EDAX All
##DET_MODE   : MediumLE
#SPECTRUM    :
19,
209,
10347,
5405,
51276,
7183,
2724,
3992,
4677,
108929,
6296,
19709,
40180,
19854,
2563,
2487,
2805,
2479,
2483,
2407,
2366,
2372,
2283,
6726,
24612,
2913,
4465,
1872,
1775,
1788,
1616,
1581,
2698,
1525,
1581,
1616,
1376,
1427,
1255,
1245,
1183,
1142,
1356,
1054,
1060,
3112,
7827,
993,
895,
908,
1641,
1307,
780,
780,
761,
732,
661,
638,
627,
649,
577,
605,
583,
541,
516,
515,
446,
460,
474,
441,
445,
387,
428,
372,
402,
360,
312,
322,
311,
289,
280,
285,
253,
294,
224,
228,
227,
214,
215,
194,
186,
182,
167,
133,
155,
132,
143,
142,
133,
118,
126,
127,
106,
90,
95,
94,
84,
80,
73,
74,
63,
66,
54,
55,
53,
50,
47,
46,
40,
34,
42,
36,
25,
29,
16,
23,
16,
19,
24,
14,
10,
7,
17,
8,
7,
8,
5,
5,
4,
3,
1,
0,
0,
0,
0,
0,
0,
0,
1,
0,
0,
1,
0,
0,
0,
0,
0,
0,
0,
0,
0,
0,
0,
0,
0,
0,
0,
1,
0,
0,
0,
0,
0,
0,
0,
0,
0,
0,
0,
0,
0,
1,
0,
0,
0,
0,
0,
0,
0,
0,
0,
0,
0,
0,
0,
0,
0,
0,
0,
0,
0,
0,
0,
0,
0,
0,
0,
0,
0,
0,
0,
0,
0,
0,
0,
0,
0,
0,
0,
0,
0,
0,
0,
0,
0,
0,
0,
0,
0,
0,
0,
0,
0,
0,
0,
0,
0,
0,
0,
0,
0,
0,
0,
0,
0,
0,
0,
0,
0,
0,
0,
0,
0,
0,
0,
0,
0,
0,
0,
0,
0,
0,
0,
0,
0,
0,
0,
0,
0,
0,
0,
0,
0,
0,
0,
0,
0,
0,
0,
0,
0,
0,
0,
0,
0,
0,
0,
0,
0,
0,
0,
0,
0,
0,
#ENDOFDATA   :

File: SPI MM2 SPI Phlogpite[3][4].msa
#FORMAT      : EMSA/MAS Spectral Data File
#VERSION     : 1.0
#TITLE       : SPI MM2 SPI Phlogpite[3][all]
#DATE        : 13-MAR-2025
#TIME        : 10:44
#OWNER       : Unknown
#NPOINTS     : 4096
#NCOLUMNS    : 1
#XUNITS      : eV
#YUNITS      : counts
#DATATYPE    : Y
#XPERCHAN    : 9.99778
#OFFSET      : 1.69135
#BEAMKV      : 20
#SIGNALTYPE  : EDS
#ELEVANGLE   : 35
#AZIMANGLE   : 0
#LIVETIME    : 239.8628
#REALTIME    : 254.6976
#PROBECUR    : 1.02606
#TAUWIND     : 0
#TDEADLYR    : 0
#TACTLYR     : 0.045
#TALWIND     : 0.025
#CHOFFSET    : 0.0
#XLABEL      : Energy (eV)
#YLABEL      : Counts
#XPOSITION   : 1.48094
#YPOSITION   : -0.4581
#ZPOSITION   : 31.0351
#EDSDET      : SD
##SPECIMEN   : SPI MM2 SPI Phlogpite[3][all]
##D2STDCMP   : SPI Phlogpite,(H:0.48),(O:46.01),(Mg:17.47),(Al:6.47),(Si:20.19),(K:9.37)
##DET_HASH   : 12273538-fd48-a23f-0a19-f1e6fa85caef
##CALIB_HASH : 6abaa72c-aa41-8738-0be9-f592914732f3
##WORKING    : 15.0 mm
##DET_NAME   : EDAX All
##DET_MODE   : MediumLE
#SPECTRUM    :
22,
174,
10036,
5383,
50995,
7231,
2787,
3968,
4613,
109167,
6281,
19714,
40653,
19710,
2445,
2386,
2796,
2369,
2553,
2453,
2455,
2360,
2310,
6479,
24548,
2959,
4545,
1810,
1822,
1675,
1699,
1655,
2678,
1634,
1541,
1607,
1381,
1439,
1322,
1303,
1139,
1126,
1385,
1090,
1050,
3118,
7791,
977,
876,
864,
1712,
1228,
753,
853,
732,
707,
639,
651,
645,
633,
590,
595,
562,
541,
545,
472,
510,
416,
449,
435,
435,
397,
420,
355,
337,
350,
337,
329,
326,
290,
272,
225,
242,
274,
236,
231,
210,
226,
195,
190,
211,
191,
166,
158,
161,
154,
133,
124,
130,
108,
121,
99,
105,
87,
95,
98,
90,
78,
82,
77,
76,
63,
56,
59,
40,
38,
46,
60,
32,
33,
26,
28,
29,
36,
23,
20,
23,
15,
18,
21,
14,
13,
6,
8,
13,
9,
4,
7,
4,
4,
4,
1,
0,
2,
0,
0,
1,
0,
0,
0,
0,
0,
0,
0,
0,
0,
0,
0,
0,
0,
0,
0,
0,
0,
0,
0,
2,
0,
0,
0,
0,
0,
1,
0,
0,
0,
0,
0,
0,
1,
0,
0,
0,
0,
0,
0,
0,
0,
0,
0,
0,
0,
0,
0,
0,
0,
0,
0,
0,
1,
0,
0,
0,
0,
0,
0,
0,
0,
0,
0,
0,
0,
0,
0,
0,
0,
0,
0,
0,
0,
0,
0,
0,
0,
0,
0,
0,
0,
0,
0,
0,
0,
0,
0,
0,
0,
0,
0,
0,
0,
0,
0,
0,
0,
0,
0,
0,
0,
0,
0,
0,
0,
0,
0,
0,
0,
0,
0,
0,
0,
0,
0,
0,
0,
0,
0,
0,
0,
0,
0,
0,
0,
0,
0,
0,
0,
0,
0,
0,
0,
0,
0,
0,
0,
0,
0,
0,
0,
0,
0,
0,
0,
0,
0,
#ENDOFDATA   :