Folder: spex_quant/N132962/Quantification/20 keV/MMM2 (part 8)

File: SPI MM2 SPI Mangotantalite[2][4].msa
#FORMAT      : EMSA/MAS Spectral Data File
#VERSION     : 1.0
#TITLE       : SPI MM2 SPI Mangotantalite[2][all]
#DATE        : 13-MAR-2025
#TIME        : 09:38
#OWNER       : Unknown
#NPOINTS     : 4096
#NCOLUMNS    : 1
#XUNITS      : eV
#YUNITS      : counts
#DATATYPE    : Y
#XPERCHAN    : 9.99778
#OFFSET      : 1.69135
#BEAMKV      : 20
#SIGNALTYPE  : EDS
#ELEVANGLE   : 35
#AZIMANGLE   : 0
#LIVETIME    : 239.87
#REALTIME    : 261.98
#PROBECUR    : 1.02582
#TAUWIND     : 0
#TDEADLYR    : 0
#TACTLYR     : 0.045
#TALWIND     : 0.025
#CHOFFSET    : 0.0
#XLABEL      : Energy (eV)
#YLABEL      : Counts
#XPOSITION   : -1.70302
#YPOSITION   : -4.59263
#ZPOSITION   : 31.03509
#EDSDET      : SD
##SPECIMEN   : SPI MM2 SPI Mangotantalite[2][all]
##DET_HASH   : 12273538-fd48-a23f-0a19-f1e6fa85caef
##CALIB_HASH : 6abaa72c-aa41-8738-0be9-f592914732f3
##WORKING    : 15.0 mm
##DET_NAME   : EDAX All
##DET_MODE   : MediumLE
#SPECTRUM    :
22,
689,
14726,
6156,
24825,
7778,
5756,
6499,
7295,
10117,
11269,
9879,
138167,
29515,
9936,
12466,
19208,
6373,
4806,
5112,
4580,
4752,
4930,
4838,
4854,
4930,
4714,
4751,
4771,
4645,
4699,
4476,
5456,
4548,
4355,
4373,
4258,
4062,
4000,
3830,
3808,
4395,
27802,
5625,
3435,
4539,
9114,
4186,
2974,
2949,
3364,
4066,
3031,
2865,
2765,
2567,
2637,
4240,
26049,
6754,
2671,
2249,
2150,
2046,
2120,
2359,
6153,
9525,
4260,
5942,
2195,
1794,
1546,
1514,
1406,
1474,
1397,
1846,
2712,
1495,
1603,
1442,
1191,
1214,
1116,
1089,
1001,
936,
941,
926,
821,
853,
726,
729,
743,
712,
682,
631,
642,
627,
568,
539,
480,
509,
465,
471,
449,
431,
388,
354,
330,
322,
361,
312,
296,
277,
285,
223,
265,
226,
225,
181,
190,
179,
166,
145,
129,
117,
108,
119,
94,
84,
82,
63,
56,
56,
47,
41,
27,
26,
20,
12,
5,
6,
4,
3,
1,
2,
2,
3,
2,
2,
1,
0,
3,
0,
1,
1,
2,
1,
1,
4,
1,
1,
2,
1,
0,
0,
0,
1,
0,
0,
0,
1,
1,
1,
2,
1,
0,
0,
1,
2,
1,
1,
0,
1,
0,
0,
0,
0,
0,
0,
0,
0,
0,
1,
0,
0,
0,
0,
0,
2,
0,
0,
0,
0,
0,
0,
0,
0,
0,
0,
0,
0,
0,
0,
0,
0,
0,
0,
0,
1,
0,
0,
0,
0,
0,
0,
0,
0,
0,
0,
0,
0,
0,
1,
0,
0,
0,
0,
0,
0,
0,
0,
0,
0,
0,
0,
0,
0,
0,
0,
0,
0,
0,
0,
0,
0,
0,
0,
0,
0,
0,
0,
0,
0,
0,
0,
0,
0,
0,
0,
0,
0,
0,
0,
0,
0,
0,
0,
0,
0,
0,
0,
0,
0,
0,
0,
0,
0,
0,
0,
0,
0,
#ENDOFDATA   :

File: SPI MM2 SPI Mangotantalite[3][4].msa
#FORMAT      : EMSA/MAS Spectral Data File
#VERSION     : 1.0
#TITLE       : SPI MM2 SPI Mangotantalite[3][all]
#DATE        : 13-MAR-2025
#TIME        : 09:39
#OWNER       : Unknown
#NPOINTS     : 4096
#NCOLUMNS    : 1
#XUNITS      : eV
#YUNITS      : counts
#DATATYPE    : Y
#XPERCHAN    : 9.99778
#OFFSET      : 1.69135
#BEAMKV      : 20
#SIGNALTYPE  : EDS
#ELEVANGLE   : 35
#AZIMANGLE   : 0
#LIVETIME    : 239.945
#REALTIME    : 262.053
#PROBECUR    : 1.02582
#TAUWIND     : 0
#TDEADLYR    : 0
#TACTLYR     : 0.045
#TALWIND     : 0.025
#CHOFFSET    : 0.0
#XLABEL      : Energy (eV)
#YLABEL      : Counts
#XPOSITION   : -1.62144
#YPOSITION   : -4.68278
#ZPOSITION   : 31.03509
#EDSDET      : SD
##SPECIMEN   : SPI MM2 SPI Mangotantalite[3][all]
##DET_HASH   : 12273538-fd48-a23f-0a19-f1e6fa85caef
##CALIB_HASH : 6abaa72c-aa41-8738-0be9-f592914732f3
##WORKING    : 15.0 mm
##DET_NAME   : EDAX All
##DET_MODE   : MediumLE
#SPECTRUM    :
34,
719,
14674,
6081,
24811,
7845,
5757,
6516,
7177,
10288,
11178,
9999,
138152,
29637,
9922,
12508,
19193,
6442,
4624,
5133,
4700,
4749,
4958,
4761,
4885,
4957,
4740,
4806,
4769,
4633,
4673,
4608,
5413,
4536,
4213,
4358,
4136,
3990,
3891,
3813,
3779,
4552,
27944,
5491,
3526,
4608,
9380,
3996,
3025,
2984,
3352,
4123,
3010,
2887,
2733,
2603,
2501,
4213,
26189,
6824,
2552,
2387,
2200,
2104,
2118,
2352,
6039,
9797,
4110,
6004,
2272,
1738,
1623,
1457,
1524,
1463,
1415,
1790,
2660,
1392,
1724,
1463,
1117,
1114,
1102,
1032,
918,
913,
946,
839,
874,
789,
817,
769,
761,
735,
711,
666,
590,
590,
601,
561,
512,
497,
465,
437,
426,
411,
417,
412,
360,
318,
338,
298,
325,
254,
230,
234,
262,
266,
194,
199,
177,
181,
152,
145,
143,
125,
111,
114,
88,
86,
74,
82,
74,
59,
53,
45,
33,
29,
13,
13,
14,
4,
2,
2,
2,
5,
2,
1,
2,
4,
3,
5,
1,
4,
4,
0,
4,
1,
2,
3,
1,
0,
1,
2,
1,
0,
1,
3,
2,
2,
0,
0,
1,
0,
0,
0,
1,
1,
0,
1,
2,
2,
0,
0,
0,
0,
1,
0,
1,
0,
1,
0,
0,
0,
0,
0,
0,
0,
0,
0,
0,
0,
0,
0,
0,
0,
0,
1,
0,
0,
0,
0,
0,
0,
0,
0,
0,
0,
0,
0,
0,
0,
0,
0,
0,
0,
0,
0,
0,
0,
0,
0,
0,
0,
0,
0,
0,
0,
0,
0,
0,
0,
0,
0,
0,
0,
0,
0,
0,
0,
0,
0,
0,
0,
0,
0,
0,
0,
0,
0,
0,
0,
0,
0,
0,
0,
0,
0,
0,
0,
0,
0,
0,
0,
0,
0,
0,
0,
0,
0,
0,
0,
0,
0,
0,
0,
0,
0,
0,
0,
0,
0,
#ENDOFDATA   :

File: SPI MM2 SPI Mangotantalite[4][4].msa
#FORMAT      : EMSA/MAS Spectral Data File
#VERSION     : 1.0
#TITLE       : SPI MM2 SPI Mangotantalite[4][all]
#DATE        : 13-MAR-2025
#TIME        : 09:41
#OWNER       : Unknown
#NPOINTS     : 4096
#NCOLUMNS    : 1
#XUNITS      : eV
#YUNITS      : counts
#DATATYPE    : Y
#XPERCHAN    : 9.99778
#OFFSET      : 1.69135
#BEAMKV      : 20
#SIGNALTYPE  : EDS
#ELEVANGLE   : 35
#AZIMANGLE   : 0
#LIVETIME    : 239.804
#REALTIME    : 261.7453
#PROBECUR    : 1.02582
#TAUWIND     : 0
#TDEADLYR    : 0
#TACTLYR     : 0.045
#TALWIND     : 0.025
#CHOFFSET    : 0.0
#XLABEL      : Energy (eV)
#YLABEL      : Counts
#XPOSITION   : -1.63124
#YPOSITION   : -4.5713
#ZPOSITION   : 31.03509
#EDSDET      : SD
##SPECIMEN   : SPI MM2 SPI Mangotantalite[4][all]
##DET_HASH   : 12273538-fd48-a23f-0a19-f1e6fa85caef
##CALIB_HASH : 6abaa72c-aa41-8738-0be9-f592914732f3
##WORKING    : 15.0 mm
##DET_NAME   : EDAX All
##DET_MODE   : MediumLE
#SPECTRUM    :
20,
689,
14575,
6041,
24989,
7904,
5754,
6483,
7229,
10142,
10957,
9943,
134219,
29236,
10040,
13151,
20813,
6626,
4650,
4879,
4573,
4642,
4796,
4846,
4970,
4956,
4660,
4654,
4632,
4600,
4545,
4535,
5279,
4369,
4297,
4349,
4093,
3942,
3900,
3784,
3731,
4243,
27894,
5637,
3467,
4592,
9332,
4010,
3016,
2951,
3254,
4057,
3068,
2871,
2703,
2610,
2620,
4166,
25400,
6814,
2610,
2288,
2111,
2071,
2031,
2278,
6036,
9367,
4001,
5897,
2222,
1788,
1522,
1458,
1480,
1426,
1477,
1812,
2722,
1427,
1705,
1347,
1153,
1146,
1080,
993,
979,
867,
897,
890,
851,
763,
810,
762,
746,
682,
715,
614,
671,
571,
593,
576,
521,
509,
495,
473,
465,
430,
374,
380,
356,
332,
312,
302,
299,
294,
247,
221,
227,
247,
204,
186,
176,
160,
159,
163,
140,
136,
117,
120,
81,
83,
85,
82,
59,
70,
58,
46,
30,
19,
25,
10,
10,
5,
1,
7,
7,
5,
1,
2,
1,
2,
0,
1,
3,
0,
2,
3,
1,
0,
1,
1,
1,
3,
3,
1,
2,
0,
0,
3,
2,
2,
3,
1,
0,
3,
1,
2,
0,
0,
1,
0,
1,
1,
0,
1,
0,
1,
0,
0,
1,
0,
0,
0,
1,
0,
0,
0,
0,
0,
0,
0,
0,
1,
0,
0,
0,
0,
0,
0,
1,
0,
0,
0,
0,
0,
0,
0,
0,
0,
0,
0,
0,
0,
0,
0,
0,
0,
0,
0,
0,
0,
0,
0,
0,
0,
0,
0,
0,
0,
0,
0,
0,
0,
0,
0,
0,
0,
0,
0,
0,
0,
0,
0,
0,
0,
0,
0,
0,
0,
0,
0,
0,
0,
0,
0,
0,
0,
0,
0,
0,
0,
0,
0,
0,
0,
0,
0,
0,
0,
0,
0,
0,
0,
0,
0,
0,
0,
0,
0,
0,
0,
0,
0,
#ENDOFDATA   :

File: SPI MM2 SPI Mangotantalite[5][4].msa
#FORMAT      : EMSA/MAS Spectral Data File
#VERSION     : 1.0
#TITLE       : SPI MM2 SPI Mangotantalite[5][all]
#DATE        : 13-MAR-2025
#TIME        : 09:42
#OWNER       : Unknown
#NPOINTS     : 4096
#NCOLUMNS    : 1
#XUNITS      : eV
#YUNITS      : counts
#DATATYPE    : Y
#XPERCHAN    : 9.99778
#OFFSET      : 1.69135
#BEAMKV      : 20
#SIGNALTYPE  : EDS
#ELEVANGLE   : 35
#AZIMANGLE   : 0
#LIVETIME    : 239.9173
#REALTIME    : 262.121
#PROBECUR    : 1.02582
#TAUWIND     : 0
#TDEADLYR    : 0
#TACTLYR     : 0.045
#TALWIND     : 0.025
#CHOFFSET    : 0.0
#XLABEL      : Energy (eV)
#YLABEL      : Counts
#XPOSITION   : -1.65646
#YPOSITION   : -4.68792
#ZPOSITION   : 31.03509
#EDSDET      : SD
##SPECIMEN   : SPI MM2 SPI Mangotantalite[5][all]
##DET_HASH   : 12273538-fd48-a23f-0a19-f1e6fa85caef
##CALIB_HASH : 6abaa72c-aa41-8738-0be9-f592914732f3
##WORKING    : 15.0 mm
##DET_NAME   : EDAX All
##DET_MODE   : MediumLE
#SPECTRUM    :
27,
760,
14677,
6111,
24985,
7891,
5743,
6273,
7241,
10348,
11044,
9993,
139810,
29771,
10064,
12026,
18749,
6293,
4763,
5251,
4691,
4716,
4785,
4758,
4949,
5007,
4834,
4806,
4754,
4714,
4799,
4612,
5380,
4455,
4268,
4328,
4111,
3953,
3909,
3804,
3821,
4432,
27843,
5513,
3563,
4410,
9136,
4195,
3038,
3047,
3357,
4175,
3082,
2895,
2813,
2625,
2586,
4257,
26413,
6823,
2621,
2274,
2161,
2208,
2167,
2302,
6194,
9823,
4156,
6199,
2249,
1697,
1600,
1566,
1487,
1483,
1435,
1881,
2627,
1523,
1708,
1439,
1081,
1193,
1114,
1039,
1023,
982,
862,
863,
845,
795,
791,
830,
736,
709,
681,
680,
591,
632,
596,
517,
533,
520,
487,
476,
413,
387,
399,
387,
351,
334,
323,
307,
293,
286,
258,
280,
236,
256,
194,
191,
158,
195,
135,
144,
127,
118,
100,
126,
89,
79,
76,
75,
65,
61,
46,
50,
39,
25,
28,
6,
10,
8,
8,
4,
4,
5,
1,
2,
4,
2,
2,
3,
3,
1,
2,
3,
2,
0,
1,
1,
2,
1,
0,
2,
0,
0,
2,
1,
1,
2,
2,
2,
0,
1,
2,
0,
0,
3,
0,
1,
1,
1,
0,
1,
0,
1,
1,
0,
0,
1,
0,
0,
1,
0,
0,
0,
0,
0,
1,
0,
0,
0,
0,
0,
0,
0,
0,
0,
0,
0,
0,
0,
0,
0,
0,
0,
0,
0,
0,
0,
0,
0,
0,
0,
0,
0,
0,
0,
0,
0,
0,
0,
0,
0,
0,
0,
0,
0,
0,
0,
0,
0,
0,
0,
0,
0,
0,
0,
0,
0,
0,
0,
0,
0,
0,
0,
0,
0,
0,
0,
0,
0,
0,
0,
0,
0,
0,
0,
0,
0,
0,
0,
0,
0,
0,
0,
0,
0,
0,
0,
0,
0,
0,
0,
0,
0,
0,
0,
0,
0,
0,
0,
#ENDOFDATA   :

File: SPI MM2 SPI Mangotantalite[6][4].msa
#FORMAT      : EMSA/MAS Spectral Data File
#VERSION     : 1.0
#TITLE       : SPI MM2 SPI Mangotantalite[6][all]
#DATE        : 13-MAR-2025
#TIME        : 09:43
#OWNER       : Unknown
#NPOINTS     : 4096
#NCOLUMNS    : 1
#XUNITS      : eV
#YUNITS      : counts
#DATATYPE    : Y
#XPERCHAN    : 9.99778
#OFFSET      : 1.69135
#BEAMKV      : 20
#SIGNALTYPE  : EDS
#ELEVANGLE   : 35
#AZIMANGLE   : 0
#LIVETIME    : 239.876
#REALTIME    : 261.735
#PROBECUR    : 1.02582
#TAUWIND     : 0
#TDEADLYR    : 0
#TACTLYR     : 0.045
#TALWIND     : 0.025
#CHOFFSET    : 0.0
#XLABEL      : Energy (eV)
#YLABEL      : Counts
#XPOSITION   : -1.57371
#YPOSITION   : -4.58274
#ZPOSITION   : 31.03509
#EDSDET      : SD
##SPECIMEN   : SPI MM2 SPI Mangotantalite[6][all]
##DET_HASH   : 12273538-fd48-a23f-0a19-f1e6fa85caef
##CALIB_HASH : 6abaa72c-aa41-8738-0be9-f592914732f3
##WORKING    : 15.0 mm
##DET_NAME   : EDAX All
##DET_MODE   : MediumLE
#SPECTRUM    :
23,
755,
14450,
6167,
25143,
7875,
5614,
6198,
7251,
10071,
10907,
10052,
132788,
29018,
10115,
13470,
21281,
6657,
4884,
5145,
4638,
4726,
4846,
4824,
4852,
4988,
4780,
4709,
4719,
4573,
4559,
4572,
5388,
4333,
4231,
4303,
4092,
3880,
3791,
3948,
3730,
4449,
28105,
5441,
3459,
4518,
9243,
4004,
3026,
2911,
3289,
4000,
2984,
2854,
2714,
2587,
2648,
4160,
25176,
6598,
2578,
2276,
2158,
2094,
1985,
2232,
5914,
9208,
4054,
5876,
2222,
1726,
1512,
1514,
1515,
1410,
1427,
1837,
2596,
1422,
1632,
1386,
1146,
1152,
1043,
1032,
983,
945,
908,
850,
833,
794,
738,
759,
729,
696,
635,
620,
573,
610,
610,
547,
498,
482,
464,
457,
416,
406,
386,
411,
342,
301,
310,
291,
291,
263,
243,
245,
233,
257,
197,
171,
189,
157,
167,
139,
131,
125,
108,
92,
106,
74,
66,
78,
67,
63,
68,
34,
25,
26,
19,
13,
8,
6,
7,
2,
4,
3,
2,
1,
2,
2,
4,
2,
5,
0,
1,
3,
4,
3,
3,
4,
0,
1,
3,
1,
0,
2,
1,
1,
0,
1,
0,
2,
0,
1,
0,
0,
0,
0,
1,
0,
0,
0,
1,
0,
0,
0,
1,
0,
1,
0,
0,
2,
0,
2,
0,
0,
0,
0,
0,
0,
0,
0,
0,
0,
0,
0,
0,
0,
0,
0,
0,
0,
0,
1,
0,
0,
0,
0,
0,
0,
0,
0,
0,
0,
0,
0,
0,
0,
0,
0,
0,
0,
0,
0,
1,
0,
0,
0,
0,
0,
0,
0,
0,
0,
0,
0,
0,
0,
0,
0,
0,
0,
0,
0,
0,
0,
0,
0,
0,
0,
0,
0,
0,
0,
0,
0,
0,
0,
0,
0,
0,
0,
0,
0,
0,
0,
0,
0,
0,
0,
0,
0,
0,
0,
0,
0,
0,
0,
0,
0,
0,
0,
#ENDOFDATA   :

File: SPI MM2 SPI Mangotantalite[7][4].msa
#FORMAT      : EMSA/MAS Spectral Data File
#VERSION     : 1.0
#TITLE       : SPI MM2 SPI Mangotantalite[7][all]
#DATE        : 13-MAR-2025
#TIME        : 09:44
#OWNER       : Unknown
#NPOINTS     : 4096
#NCOLUMNS    : 1
#XUNITS      : eV
#YUNITS      : counts
#DATATYPE    : Y
#XPERCHAN    : 9.99778
#OFFSET      : 1.69135
#BEAMKV      : 20
#SIGNALTYPE  : EDS
#ELEVANGLE   : 35
#AZIMANGLE   : 0
#LIVETIME    : 239.84
#REALTIME    : 261.737
#PROBECUR    : 1.02582
#TAUWIND     : 0
#TDEADLYR    : 0
#TACTLYR     : 0.045
#TALWIND     : 0.025
#CHOFFSET    : 0.0
#XLABEL      : Energy (eV)
#YLABEL      : Counts
#XPOSITION   : -1.60897
#YPOSITION   : -4.5705
#ZPOSITION   : 31.03509
#EDSDET      : SD
##SPECIMEN   : SPI MM2 SPI Mangotantalite[7][all]
##DET_HASH   : 12273538-fd48-a23f-0a19-f1e6fa85caef
##CALIB_HASH : 6abaa72c-aa41-8738-0be9-f592914732f3
##WORKING    : 15.0 mm
##DET_NAME   : EDAX All
##DET_MODE   : MediumLE
#SPECTRUM    :
18,
681,
14502,
6122,
25107,
7807,
5557,
6339,
7263,
10021,
10956,
9971,
132700,
29068,
9938,
13426,
21006,
6630,
4797,
5050,
4661,
4719,
4743,
4770,
4919,
4976,
4723,
4704,
4741,
4701,
4729,
4493,
5441,
4461,
4176,
4266,
4059,
4003,
3913,
3846,
3830,
4316,
27913,
5515,
3483,
4631,
9309,
4076,
3045,
3001,
3335,
4006,
2985,
2833,
2652,
2534,
2599,
4179,
25061,
6635,
2473,
2250,
2061,
2085,
2132,
2403,
5924,
9373,
4065,
5926,
2203,
1709,
1457,
1505,
1528,
1459,
1418,
1815,
2604,
1440,
1654,
1435,
1138,
1213,
1038,
1000,
1000,
939,
889,
824,
881,
790,
799,
758,
740,
719,
648,
657,
621,
587,
561,
540,
504,
536,
451,
463,
426,
399,
372,
357,
357,
336,
324,
294,
251,
263,
250,
253,
245,
249,
225,
167,
179,
149,
153,
153,
137,
130,
120,
105,
100,
96,
76,
73,
64,
61,
37,
38,
30,
25,
26,
16,
4,
1,
2,
4,
4,
5,
3,
4,
4,
2,
0,
3,
3,
3,
1,
4,
1,
3,
1,
2,
0,
1,
0,
2,
4,
0,
1,
0,
0,
1,
0,
1,
0,
0,
1,
0,
1,
2,
0,
0,
0,
2,
0,
1,
2,
1,
1,
0,
1,
0,
0,
0,
0,
0,
1,
2,
0,
0,
0,
0,
0,
0,
0,
1,
1,
1,
0,
0,
0,
0,
0,
0,
1,
0,
0,
0,
0,
0,
0,
0,
0,
0,
0,
0,
0,
0,
0,
0,
0,
0,
0,
0,
0,
0,
0,
0,
0,
0,
0,
0,
0,
0,
0,
0,
0,
0,
0,
0,
0,
0,
0,
0,
0,
0,
0,
0,
0,
0,
0,
0,
0,
0,
0,
0,
0,
0,
0,
0,
0,
0,
0,
0,
0,
0,
0,
0,
0,
0,
0,
0,
0,
0,
0,
0,
0,
0,
0,
0,
0,
0,
0,
0,
#ENDOFDATA   :

File: SPI MM2 SPI Molybdenite[0][4].msa
#FORMAT      : EMSA/MAS Spectral Data File
#VERSION     : 1.0
#TITLE       : SPI MM2 SPI Molybdenite[0][all]
#DATE        : 13-MAR-2025
#TIME        : 10:13
#OWNER       : Unknown
#NPOINTS     : 4096
#NCOLUMNS    : 1
#XUNITS      : eV
#YUNITS      : counts
#DATATYPE    : Y
#XPERCHAN    : 9.99778
#OFFSET      : 1.69135
#BEAMKV      : 20
#SIGNALTYPE  : EDS
#ELEVANGLE   : 35
#AZIMANGLE   : 0
#LIVETIME    : 239.68
#REALTIME    : 266.2858
#PROBECUR    : 1.02627
#TAUWIND     : 0
#TDEADLYR    : 0
#TACTLYR     : 0.045
#TALWIND     : 0.025
#CHOFFSET    : 0.0
#XLABEL      : Energy (eV)
#YLABEL      : Counts
#XPOSITION   : 5.96642
#YPOSITION   : -2.74698
#ZPOSITION   : 31.03509
#EDSDET      : SD
##SPECIMEN   : SPI MM2 SPI Molybdenite[0][all]
##D2STDCMP   : SPI Molybdenite,(S:39.84),(Mo:59.29),5.0
##DET_HASH   : 12273538-fd48-a23f-0a19-f1e6fa85caef
##CALIB_HASH : 6abaa72c-aa41-8738-0be9-f592914732f3
##WORKING    : 15.0 mm
##DET_NAME   : EDAX All
##DET_MODE   : MediumLE
#SPECTRUM    :
18,
2594,
14464,
2578,
14501,
5736,
5834,
6527,
7410,
8186,
8762,
9159,
9459,
9388,
11813,
12924,
184032,
173085,
24586,
4421,
4183,
3180,
3160,
3363,
3241,
3434,
3423,
3441,
3346,
3341,
3401,
3232,
3385,
4851,
3622,
3055,
2915,
2860,
2847,
2795,
2731,
2629,
2638,
2482,
2425,
2448,
2671,
2302,
2237,
2249,
2129,
2076,
1982,
2121,
1871,
1903,
1801,
1773,
1716,
1727,
1642,
1580,
1568,
1459,
1399,
1409,
1375,
1304,
1271,
1256,
1183,
1170,
1206,
1151,
1021,
1039,
980,
1025,
957,
889,
949,
878,
821,
785,
761,
739,
675,
674,
644,
602,
583,
565,
539,
542,
513,
512,
441,
456,
427,
420,
385,
399,
370,
340,
290,
307,
292,
291,
247,
214,
227,
260,
189,
186,
169,
185,
154,
159,
144,
151,
124,
119,
118,
92,
87,
103,
75,
86,
67,
61,
51,
49,
37,
53,
40,
28,
27,
19,
21,
15,
13,
9,
4,
2,
2,
1,
2,
2,
1,
0,
0,
1,
4,
1,
0,
0,
2,
0,
0,
0,
0,
0,
0,
0,
0,
0,
0,
0,
1,
0,
0,
0,
0,
1,
0,
0,
0,
1,
1,
0,
0,
1,
0,
0,
0,
1,
0,
0,
0,
0,
0,
0,
0,
0,
0,
0,
0,
0,
1,
0,
0,
0,
0,
0,
1,
0,
0,
0,
0,
0,
0,
0,
0,
0,
0,
0,
0,
0,
0,
0,
0,
0,
0,
0,
0,
0,
0,
0,
0,
0,
0,
0,
0,
0,
0,
0,
0,
0,
0,
0,
0,
0,
0,
0,
0,
0,
0,
0,
0,
0,
0,
0,
0,
0,
0,
0,
0,
0,
0,
0,
0,
0,
0,
0,
0,
0,
0,
0,
0,
0,
0,
0,
0,
0,
0,
0,
0,
0,
0,
0,
0,
0,
0,
0,
0,
0,
0,
0,
0,
0,
0,
0,
0,
0,
#ENDOFDATA   :

File: SPI MM2 SPI Molybdenite[2][4].msa
#FORMAT      : EMSA/MAS Spectral Data File
#VERSION     : 1.0
#TITLE       : SPI MM2 SPI Molybdenite[2][all]
#DATE        : 13-MAR-2025
#TIME        : 10:15
#OWNER       : Unknown
#NPOINTS     : 4096
#NCOLUMNS    : 1
#XUNITS      : eV
#YUNITS      : counts
#DATATYPE    : Y
#XPERCHAN    : 9.99778
#OFFSET      : 1.69135
#BEAMKV      : 20
#SIGNALTYPE  : EDS
#ELEVANGLE   : 35
#AZIMANGLE   : 0
#LIVETIME    : 239.737
#REALTIME    : 266.349
#PROBECUR    : 1.02627
#TAUWIND     : 0
#TDEADLYR    : 0
#TACTLYR     : 0.045
#TALWIND     : 0.025
#CHOFFSET    : 0.0
#XLABEL      : Energy (eV)
#YLABEL      : Counts
#XPOSITION   : 5.94302
#YPOSITION   : -2.9238
#ZPOSITION   : 31.03509
#EDSDET      : SD
##SPECIMEN   : SPI MM2 SPI Molybdenite[2][all]
##D2STDCMP   : SPI Molybdenite,(S:39.84),(Mo:59.29),5.0
##DET_HASH   : 12273538-fd48-a23f-0a19-f1e6fa85caef
##CALIB_HASH : 6abaa72c-aa41-8738-0be9-f592914732f3
##WORKING    : 15.0 mm
##DET_NAME   : EDAX All
##DET_MODE   : MediumLE
#SPECTRUM    :
25,
2567,
14919,
2532,
15031,
5756,
5830,
6540,
7490,
8106,
8699,
9111,
9388,
9364,
11820,
12609,
183870,
172105,
24442,
4312,
4232,
3188,
3127,
3328,
3330,
3346,
3245,
3437,
3265,
3328,
3377,
3409,
3498,
4782,
3574,
3191,
2995,
2818,
2860,
2827,
2741,
2632,
2536,
2502,
2478,
2561,
2725,
2282,
2173,
2102,
2185,
2086,
2041,
2010,
1957,
1822,
1804,
1713,
1688,
1674,
1636,
1589,
1467,
1472,
1448,
1400,
1388,
1262,
1279,
1234,
1201,
1174,
1065,
1155,
1090,
1064,
975,
1002,
956,
942,
894,
827,
814,
794,
744,
737,
721,
718,
591,
655,
587,
594,
509,
529,
521,
504,
450,
466,
439,
413,
378,
390,
330,
275,
333,
327,
260,
273,
261,
228,
233,
227,
184,
190,
224,
169,
186,
129,
130,
143,
129,
133,
130,
93,
92,
89,
94,
90,
64,
72,
44,
50,
36,
44,
34,
35,
29,
16,
16,
14,
14,
6,
2,
1,
1,
2,
3,
2,
1,
2,
0,
0,
1,
2,
2,
1,
1,
2,
1,
0,
1,
0,
0,
0,
0,
0,
2,
0,
0,
0,
0,
1,
0,
0,
0,
1,
0,
0,
1,
0,
0,
0,
0,
0,
0,
0,
1,
0,
0,
0,
0,
0,
1,
1,
0,
0,
0,
0,
0,
0,
0,
0,
0,
0,
0,
0,
0,
0,
0,
0,
0,
0,
0,
0,
0,
1,
0,
0,
0,
0,
0,
0,
0,
0,
0,
0,
0,
0,
0,
0,
0,
0,
0,
0,
0,
0,
0,
0,
0,
0,
0,
0,
0,
0,
0,
0,
0,
0,
0,
0,
0,
0,
0,
0,
0,
0,
0,
0,
0,
0,
0,
0,
0,
0,
0,
0,
0,
0,
0,
0,
0,
0,
0,
0,
0,
0,
0,
0,
0,
0,
0,
0,
0,
0,
0,
0,
0,
0,
0,
0,
0,
0,
0,
0,
#ENDOFDATA   :

File: SPI MM2 SPI Molybdenite[6][4].msa
#FORMAT      : EMSA/MAS Spectral Data File
#VERSION     : 1.0
#TITLE       : SPI MM2 SPI Molybdenite[6][all]
#DATE        : 13-MAR-2025
#TIME        : 10:20
#OWNER       : Unknown
#NPOINTS     : 4096
#NCOLUMNS    : 1
#XUNITS      : eV
#YUNITS      : counts
#DATATYPE    : Y
#XPERCHAN    : 9.99778
#OFFSET      : 1.69135
#BEAMKV      : 20
#SIGNALTYPE  : EDS
#ELEVANGLE   : 35
#AZIMANGLE   : 0
#LIVETIME    : 239.349
#REALTIME    : 265.712
#PROBECUR    : 1.02606
#TAUWIND     : 0
#TDEADLYR    : 0
#TACTLYR     : 0.045
#TALWIND     : 0.025
#CHOFFSET    : 0.0
#XLABEL      : Energy (eV)
#YLABEL      : Counts
#XPOSITION   : 5.79096
#YPOSITION   : -3.29739
#ZPOSITION   : 31.0351
#EDSDET      : SD
##SPECIMEN   : SPI MM2 SPI Molybdenite[6][all]
##D2STDCMP   : SPI Molybdenite,(S:39.84),(Mo:59.29),5.0
##DET_HASH   : 12273538-fd48-a23f-0a19-f1e6fa85caef
##CALIB_HASH : 6abaa72c-aa41-8738-0be9-f592914732f3
##WORKING    : 15.0 mm
##DET_NAME   : EDAX All
##DET_MODE   : MediumLE
#SPECTRUM    :
21,
2484,
14913,
2576,
14975,
5814,
5800,
6731,
7478,
7893,
8539,
8992,
9283,
9285,
11925,
12884,
181460,
171002,
24005,
4359,
4063,
3139,
3183,
3185,
3299,
3360,
3452,
3283,
3327,
3381,
3193,
3323,
3281,
4804,
3568,
3091,
2971,
2851,
2878,
2716,
2726,
2573,
2602,
2429,
2404,
2490,
2762,
2213,
2162,
2113,
2105,
2132,
1999,
2005,
1914,
1860,
1735,
1776,
1694,
1666,
1580,
1551,
1572,
1482,
1412,
1455,
1480,
1315,
1264,
1203,
1212,
1236,
1076,
1102,
1146,
1006,
991,
964,
958,
936,
872,
819,
788,
768,
735,
721,
693,
658,
660,
602,
585,
555,
546,
522,
510,
502,
462,
398,
391,
370,
407,
381,
325,
319,
312,
283,
291,
274,
270,
256,
211,
243,
201,
189,
191,
169,
178,
138,
138,
123,
123,
134,
115,
88,
90,
93,
82,
64,
72,
52,
46,
53,
44,
47,
43,
31,
21,
17,
18,
12,
10,
5,
5,
1,
2,
2,
0,
1,
0,
0,
0,
1,
0,
0,
1,
0,
1,
0,
0,
0,
0,
0,
1,
1,
0,
0,
1,
0,
1,
0,
0,
0,
0,
0,
0,
0,
0,
0,
0,
0,
0,
0,
1,
0,
0,
1,
0,
0,
0,
0,
0,
0,
0,
0,
0,
0,
0,
0,
1,
0,
0,
0,
0,
0,
0,
0,
0,
0,
0,
0,
0,
0,
0,
0,
0,
0,
0,
0,
0,
0,
0,
0,
0,
0,
0,
0,
0,
0,
0,
0,
0,
0,
0,
0,
0,
0,
0,
0,
0,
0,
0,
0,
0,
0,
0,
0,
0,
0,
0,
0,
0,
0,
0,
0,
0,
0,
0,
0,
0,
0,
0,
0,
0,
0,
0,
0,
0,
0,
0,
0,
0,
0,
0,
0,
0,
0,
0,
0,
0,
0,
0,
0,
0,
0,
0,
0,
0,
0,
0,
0,
0,
0,
0,
0,
#ENDOFDATA   :

File: SPI MM2 SPI Molybdenite[7][4].msa
#FORMAT      : EMSA/MAS Spectral Data File
#VERSION     : 1.0
#TITLE       : SPI MM2 SPI Molybdenite[7][all]
#DATE        : 13-MAR-2025
#TIME        : 10:21
#OWNER       : Unknown
#NPOINTS     : 4096
#NCOLUMNS    : 1
#XUNITS      : eV
#YUNITS      : counts
#DATATYPE    : Y
#XPERCHAN    : 9.99778
#OFFSET      : 1.69135
#BEAMKV      : 20
#SIGNALTYPE  : EDS
#ELEVANGLE   : 35
#AZIMANGLE   : 0
#LIVETIME    : 239.725
#REALTIME    : 266.275
#PROBECUR    : 1.02606
#TAUWIND     : 0
#TDEADLYR    : 0
#TACTLYR     : 0.045
#TALWIND     : 0.025
#CHOFFSET    : 0.0
#XLABEL      : Energy (eV)
#YLABEL      : Counts
#XPOSITION   : 5.68982
#YPOSITION   : -3.24716
#ZPOSITION   : 31.0351
#EDSDET      : SD
##SPECIMEN   : SPI MM2 SPI Molybdenite[7][all]
##D2STDCMP   : SPI Molybdenite,(S:39.84),(Mo:59.29),5.0
##DET_HASH   : 12273538-fd48-a23f-0a19-f1e6fa85caef
##CALIB_HASH : 6abaa72c-aa41-8738-0be9-f592914732f3
##WORKING    : 15.0 mm
##DET_NAME   : EDAX All
##DET_MODE   : MediumLE
#SPECTRUM    :
17,
2552,
14432,
2557,
14698,
5834,
5840,
6651,
7523,
8310,
8746,
8985,
9607,
9633,
12015,
12646,
184080,
172385,
24265,
4377,
4045,
3168,
3261,
3188,
3234,
3383,
3345,
3382,
3353,
3376,
3301,
3286,
3459,
4857,
3612,
3104,
2845,
2917,
2867,
2844,
2755,
2550,
2703,
2429,
2588,
2476,
2641,
2202,
2262,
2126,
2149,
2110,
2021,
2061,
2025,
1807,
1794,
1738,
1682,
1699,
1613,
1525,
1530,
1547,
1387,
1374,
1341,
1343,
1303,
1263,
1224,
1252,
1132,
1080,
1031,
1048,
971,
956,
930,
921,
849,
829,
789,
817,
801,
723,
684,
625,
646,
618,
601,
581,
504,
542,
490,
458,
437,
479,
394,
394,
351,
390,
377,
365,
312,
298,
319,
291,
245,
255,
210,
213,
192,
202,
191,
202,
147,
143,
138,
132,
106,
132,
124,
111,
94,
83,
88,
73,
55,
63,
52,
54,
38,
35,
33,
24,
22,
20,
20,
16,
15,
5,
4,
0,
1,
1,
1,
1,
0,
2,
1,
0,
0,
2,
3,
1,
0,
0,
1,
0,
1,
0,
0,
0,
0,
0,
0,
0,
0,
0,
0,
0,
0,
0,
0,
0,
0,
0,
0,
1,
1,
0,
0,
0,
0,
1,
0,
0,
0,
0,
0,
0,
0,
0,
0,
0,
0,
0,
0,
0,
0,
0,
0,
0,
0,
0,
0,
0,
0,
0,
1,
0,
0,
0,
0,
0,
0,
0,
0,
0,
0,
0,
0,
0,
0,
0,
0,
0,
0,
0,
0,
0,
0,
0,
0,
0,
0,
0,
0,
0,
0,
0,
0,
0,
0,
0,
0,
0,
0,
0,
0,
0,
0,
0,
0,
0,
0,
0,
0,
0,
0,
0,
0,
0,
0,
0,
0,
0,
0,
0,
0,
0,
0,
0,
0,
0,
0,
0,
0,
0,
0,
0,
0,
0,
0,
0,
0,
0,
0,
0,
0,
0,
0,
0,
#ENDOFDATA   :

File: SPI MM2 SPI Monazite[0][4].msa
#FORMAT      : EMSA/MAS Spectral Data File
#VERSION     : 1.0
#TITLE       : SPI MM2 SPI Monazite[0][all]
#DATE        : 13-MAR-2025
#TIME        : 10:04
#OWNER       : Unknown
#NPOINTS     : 4096
#NCOLUMNS    : 1
#XUNITS      : eV
#YUNITS      : counts
#DATATYPE    : Y
#XPERCHAN    : 9.99778
#OFFSET      : 1.69135
#BEAMKV      : 20
#SIGNALTYPE  : EDS
#ELEVANGLE   : 35
#AZIMANGLE   : 0
#LIVETIME    : 239.961
#REALTIME    : 258.542
#PROBECUR    : 1.02627
#TAUWIND     : 0
#TDEADLYR    : 0
#TACTLYR     : 0.045
#TALWIND     : 0.025
#CHOFFSET    : 0.0
#XLABEL      : Energy (eV)
#YLABEL      : Counts
#XPOSITION   : 2.41417
#YPOSITION   : -2.72714
#ZPOSITION   : 31.03509
#EDSDET      : SD
##SPECIMEN   : SPI MM2 SPI Monazite[0][all]
##D2STDCMP   : SPI Monazite,(O:26.45),(Si:0.83),(P:11.85),(Ca:0.65),(Y:1.59),(La:7.84),(Ce:19.96),(Pr:2.47),(Nd:9.68),(Sm:3.7),(Eu:0.38),(Gd:2.89),(Tb:0.35),(Dy:1.21),(Pb:0.25),(Th:9.7),(U:0.16),5.0
##DET_HASH   : 12273538-fd48-a23f-0a19-f1e6fa85caef
##CALIB_HASH : 6abaa72c-aa41-8738-0be9-f592914732f3
##WORKING    : 15.0 mm
##DET_NAME   : EDAX All
##DET_MODE   : MediumLE
#SPECTRUM    :
32,
447,
17286,
8129,
40906,
9240,
10734,
9288,
7539,
6578,
5812,
5609,
7631,
7323,
36605,
12950,
5225,
6065,
5180,
5206,
5155,
11618,
11063,
7795,
6096,
4775,
5968,
4959,
4500,
4751,
4469,
4675,
4356,
13020,
13578,
17198,
12084,
15380,
15637,
6177,
10997,
9403,
4394,
7001,
5370,
4366,
3524,
4006,
3405,
2733,
2632,
2697,
2462,
2455,
2225,
2145,
2047,
1908,
1937,
1929,
1772,
1783,
1642,
1635,
1594,
1590,
1509,
1466,
1416,
1457,
1349,
1387,
1274,
1267,
1202,
1189,
1152,
1085,
1089,
1084,
1019,
987,
963,
922,
890,
875,
800,
812,
740,
726,
742,
729,
815,
800,
604,
552,
527,
525,
522,
527,
475,
437,
408,
432,
409,
370,
392,
359,
335,
283,
308,
285,
294,
246,
249,
213,
209,
149,
183,
150,
159,
160,
115,
140,
113,
120,
107,
88,
89,
88,
63,
65,
70,
55,
45,
25,
34,
29,
17,
16,
12,
7,
8,
4,
1,
4,
1,
0,
4,
1,
1,
1,
0,
0,
3,
2,
1,
0,
0,
1,
0,
0,
1,
0,
2,
0,
1,
1,
0,
0,
0,
0,
1,
0,
1,
0,
2,
0,
0,
0,
1,
0,
0,
0,
0,
1,
0,
0,
0,
0,
0,
0,
1,
0,
0,
0,
0,
0,
0,
1,
0,
0,
1,
0,
0,
1,
0,
0,
0,
0,
0,
0,
0,
1,
0,
0,
0,
0,
0,
0,
0,
0,
0,
0,
0,
0,
0,
0,
0,
0,
0,
0,
0,
0,
0,
0,
0,
0,
0,
0,
0,
0,
0,
0,
0,
0,
0,
0,
0,
0,
0,
0,
0,
0,
0,
0,
0,
0,
0,
0,
0,
0,
0,
0,
0,
0,
0,
0,
0,
0,
0,
0,
0,
0,
0,
0,
0,
0,
0,
0,
0,
0,
0,
0,
0,
0,
0,
0,
0,
0,
0,
0,
0,
0,
#ENDOFDATA   :