Folder: spex_quant/N132962/Quantification/20 keV/MMM2 (part 9)

File: SPI MM2 SPI Monazite[1][4].msa
#FORMAT      : EMSA/MAS Spectral Data File
#VERSION     : 1.0
#TITLE       : SPI MM2 SPI Monazite[1][all]
#DATE        : 13-MAR-2025
#TIME        : 10:05
#OWNER       : Unknown
#NPOINTS     : 4096
#NCOLUMNS    : 1
#XUNITS      : eV
#YUNITS      : counts
#DATATYPE    : Y
#XPERCHAN    : 9.99778
#OFFSET      : 1.69135
#BEAMKV      : 20
#SIGNALTYPE  : EDS
#ELEVANGLE   : 35
#AZIMANGLE   : 0
#LIVETIME    : 239.936
#REALTIME    : 258.482
#PROBECUR    : 1.02627
#TAUWIND     : 0
#TDEADLYR    : 0
#TACTLYR     : 0.045
#TALWIND     : 0.025
#CHOFFSET    : 0.0
#XLABEL      : Energy (eV)
#YLABEL      : Counts
#XPOSITION   : 2.35882
#YPOSITION   : -2.7424
#ZPOSITION   : 31.03509
#EDSDET      : SD
##SPECIMEN   : SPI MM2 SPI Monazite[1][all]
##D2STDCMP   : SPI Monazite,(O:26.45),(Si:0.83),(P:11.85),(Ca:0.65),(Y:1.59),(La:7.84),(Ce:19.96),(Pr:2.47),(Nd:9.68),(Sm:3.7),(Eu:0.38),(Gd:2.89),(Tb:0.35),(Dy:1.21),(Pb:0.25),(Th:9.7),(U:0.16),5.0
##DET_HASH   : 12273538-fd48-a23f-0a19-f1e6fa85caef
##CALIB_HASH : 6abaa72c-aa41-8738-0be9-f592914732f3
##WORKING    : 15.0 mm
##DET_NAME   : EDAX All
##DET_MODE   : MediumLE
#SPECTRUM    :
25,
422,
17220,
7833,
41033,
9202,
10752,
9154,
7379,
6576,
5795,
5651,
7418,
7233,
36267,
13152,
5366,
6027,
5240,
5264,
5201,
11481,
11118,
7825,
6031,
4814,
5984,
4820,
4595,
4693,
4455,
4588,
4369,
13081,
13380,
17000,
11803,
15544,
15552,
6241,
11027,
9208,
4536,
7217,
5435,
4298,
3491,
4098,
3433,
2805,
2588,
2726,
2508,
2332,
2139,
2111,
2113,
1867,
1942,
1876,
1808,
1689,
1732,
1705,
1595,
1596,
1513,
1428,
1470,
1488,
1400,
1350,
1313,
1191,
1181,
1174,
1121,
1077,
1030,
1072,
1005,
989,
908,
917,
863,
788,
813,
748,
753,
692,
727,
690,
810,
768,
618,
630,
550,
539,
526,
502,
471,
466,
428,
400,
387,
387,
363,
345,
328,
308,
278,
295,
281,
248,
207,
183,
186,
161,
182,
170,
153,
150,
133,
121,
104,
105,
109,
97,
85,
67,
60,
71,
62,
48,
52,
30,
29,
30,
32,
21,
11,
17,
4,
0,
3,
7,
1,
5,
2,
0,
1,
2,
3,
4,
1,
0,
0,
1,
1,
0,
2,
0,
1,
0,
0,
1,
0,
0,
0,
0,
1,
1,
1,
0,
0,
0,
1,
0,
0,
0,
0,
1,
0,
0,
0,
0,
1,
0,
0,
1,
0,
0,
0,
0,
0,
0,
0,
0,
1,
0,
0,
0,
0,
0,
0,
0,
0,
0,
0,
0,
1,
0,
0,
0,
0,
0,
0,
0,
0,
0,
0,
0,
0,
0,
0,
0,
0,
0,
0,
0,
0,
0,
0,
0,
0,
0,
0,
0,
0,
0,
0,
0,
0,
0,
0,
0,
0,
0,
0,
0,
0,
0,
0,
0,
0,
0,
0,
0,
0,
0,
0,
0,
0,
0,
0,
0,
0,
0,
0,
0,
0,
0,
0,
0,
0,
0,
0,
0,
0,
0,
0,
0,
0,
0,
0,
0,
0,
0,
0,
0,
0,
0,
0,
0,
#ENDOFDATA   :

File: SPI MM2 SPI Monazite[2][4].msa
#FORMAT      : EMSA/MAS Spectral Data File
#VERSION     : 1.0
#TITLE       : SPI MM2 SPI Monazite[2][all]
#DATE        : 13-MAR-2025
#TIME        : 10:06
#OWNER       : Unknown
#NPOINTS     : 4096
#NCOLUMNS    : 1
#XUNITS      : eV
#YUNITS      : counts
#DATATYPE    : Y
#XPERCHAN    : 9.99778
#OFFSET      : 1.69135
#BEAMKV      : 20
#SIGNALTYPE  : EDS
#ELEVANGLE   : 35
#AZIMANGLE   : 0
#LIVETIME    : 239.956
#REALTIME    : 258.5444
#PROBECUR    : 1.02627
#TAUWIND     : 0
#TDEADLYR    : 0
#TACTLYR     : 0.045
#TALWIND     : 0.025
#CHOFFSET    : 0.0
#XLABEL      : Energy (eV)
#YLABEL      : Counts
#XPOSITION   : 2.47962
#YPOSITION   : -2.76458
#ZPOSITION   : 31.03509
#EDSDET      : SD
##SPECIMEN   : SPI MM2 SPI Monazite[2][all]
##D2STDCMP   : SPI Monazite,(O:26.45),(Si:0.83),(P:11.85),(Ca:0.65),(Y:1.59),(La:7.84),(Ce:19.96),(Pr:2.47),(Nd:9.68),(Sm:3.7),(Eu:0.38),(Gd:2.89),(Tb:0.35),(Dy:1.21),(Pb:0.25),(Th:9.7),(U:0.16),5.0
##DET_HASH   : 12273538-fd48-a23f-0a19-f1e6fa85caef
##CALIB_HASH : 6abaa72c-aa41-8738-0be9-f592914732f3
##WORKING    : 15.0 mm
##DET_NAME   : EDAX All
##DET_MODE   : MediumLE
#SPECTRUM    :
23,
386,
17414,
7814,
41259,
9628,
10820,
9242,
7268,
6547,
5884,
5657,
7614,
7330,
36580,
12958,
5236,
5919,
5235,
5302,
5244,
11575,
11031,
7945,
6026,
4824,
5952,
4927,
4525,
4855,
4531,
4636,
4249,
13304,
13133,
17029,
11805,
15538,
15450,
6225,
10886,
9476,
4346,
6973,
5432,
4364,
3477,
4095,
3381,
2778,
2569,
2781,
2576,
2387,
2217,
2232,
1918,
1991,
1857,
1919,
1813,
1694,
1801,
1666,
1705,
1500,
1502,
1497,
1481,
1398,
1460,
1338,
1272,
1308,
1268,
1224,
1159,
1156,
1040,
1053,
975,
952,
945,
923,
921,
813,
822,
832,
799,
678,
689,
674,
801,
809,
602,
616,
592,
559,
513,
466,
473,
428,
412,
391,
378,
388,
387,
399,
348,
311,
269,
290,
271,
236,
237,
218,
175,
176,
177,
167,
123,
172,
135,
136,
128,
111,
107,
96,
70,
85,
76,
66,
49,
51,
42,
32,
27,
28,
19,
19,
9,
10,
7,
4,
1,
1,
1,
2,
0,
2,
1,
1,
2,
2,
0,
1,
1,
1,
0,
2,
2,
3,
0,
0,
1,
2,
0,
1,
0,
0,
0,
0,
1,
0,
0,
0,
0,
1,
0,
0,
1,
0,
0,
0,
0,
0,
0,
1,
0,
0,
0,
0,
0,
0,
0,
1,
0,
0,
0,
0,
0,
0,
0,
0,
0,
0,
0,
0,
0,
0,
0,
0,
0,
0,
1,
0,
0,
0,
0,
0,
0,
0,
0,
0,
0,
0,
0,
0,
0,
0,
0,
0,
0,
0,
0,
0,
0,
0,
0,
0,
0,
0,
0,
1,
0,
0,
0,
0,
0,
0,
0,
0,
0,
0,
0,
0,
0,
0,
0,
0,
0,
0,
0,
0,
0,
0,
0,
0,
0,
0,
0,
0,
0,
0,
0,
0,
0,
0,
0,
0,
0,
0,
0,
0,
0,
0,
0,
0,
0,
0,
0,
0,
0,
0,
#ENDOFDATA   :

File: SPI MM2 SPI Monazite[3][4].msa
#FORMAT      : EMSA/MAS Spectral Data File
#VERSION     : 1.0
#TITLE       : SPI MM2 SPI Monazite[3][all]
#DATE        : 13-MAR-2025
#TIME        : 10:07
#OWNER       : Unknown
#NPOINTS     : 4096
#NCOLUMNS    : 1
#XUNITS      : eV
#YUNITS      : counts
#DATATYPE    : Y
#XPERCHAN    : 9.99778
#OFFSET      : 1.69135
#BEAMKV      : 20
#SIGNALTYPE  : EDS
#ELEVANGLE   : 35
#AZIMANGLE   : 0
#LIVETIME    : 239.948
#REALTIME    : 258.54
#PROBECUR    : 1.02627
#TAUWIND     : 0
#TDEADLYR    : 0
#TACTLYR     : 0.045
#TALWIND     : 0.025
#CHOFFSET    : 0.0
#XLABEL      : Energy (eV)
#YLABEL      : Counts
#XPOSITION   : 2.48359
#YPOSITION   : -2.72198
#ZPOSITION   : 31.03509
#EDSDET      : SD
##SPECIMEN   : SPI MM2 SPI Monazite[3][all]
##D2STDCMP   : SPI Monazite,(O:26.45),(Si:0.83),(P:11.85),(Ca:0.65),(Y:1.59),(La:7.84),(Ce:19.96),(Pr:2.47),(Nd:9.68),(Sm:3.7),(Eu:0.38),(Gd:2.89),(Tb:0.35),(Dy:1.21),(Pb:0.25),(Th:9.7),(U:0.16),5.0
##DET_HASH   : 12273538-fd48-a23f-0a19-f1e6fa85caef
##CALIB_HASH : 6abaa72c-aa41-8738-0be9-f592914732f3
##WORKING    : 15.0 mm
##DET_NAME   : EDAX All
##DET_MODE   : MediumLE
#SPECTRUM    :
20,
462,
17321,
7795,
40857,
9497,
10916,
9313,
7567,
6531,
5710,
5575,
7454,
7167,
36524,
12771,
5268,
5826,
5267,
5307,
5217,
11701,
11222,
7856,
6058,
4865,
5889,
4761,
4512,
4788,
4429,
4642,
4252,
13142,
13400,
17299,
12067,
15785,
15329,
6180,
10983,
9402,
4399,
7076,
5355,
4320,
3642,
4093,
3397,
2806,
2595,
2774,
2506,
2420,
2172,
2196,
2085,
1907,
1841,
1907,
1795,
1705,
1737,
1678,
1543,
1567,
1492,
1460,
1463,
1434,
1445,
1409,
1291,
1259,
1198,
1249,
1190,
1124,
1090,
1033,
1058,
960,
910,
917,
931,
836,
794,
752,
752,
742,
707,
753,
809,
823,
631,
579,
571,
496,
534,
448,
485,
423,
458,
397,
380,
374,
386,
372,
325,
319,
264,
303,
271,
266,
218,
259,
185,
170,
168,
174,
168,
135,
136,
118,
122,
101,
112,
80,
87,
72,
63,
68,
65,
61,
45,
32,
30,
29,
24,
13,
14,
4,
4,
4,
0,
0,
1,
1,
2,
1,
1,
0,
2,
1,
0,
1,
0,
2,
2,
2,
0,
0,
1,
2,
0,
2,
0,
1,
1,
0,
0,
0,
0,
0,
1,
0,
1,
0,
0,
0,
1,
0,
1,
0,
0,
0,
0,
0,
0,
1,
0,
0,
0,
0,
0,
0,
0,
2,
0,
0,
0,
0,
0,
0,
0,
0,
0,
0,
0,
0,
0,
0,
0,
0,
0,
0,
1,
0,
0,
0,
0,
0,
0,
0,
0,
0,
0,
0,
0,
0,
0,
0,
0,
0,
0,
0,
0,
0,
0,
0,
0,
0,
0,
0,
0,
0,
0,
0,
0,
0,
0,
0,
0,
0,
0,
0,
0,
0,
0,
0,
0,
0,
0,
0,
0,
0,
0,
0,
0,
0,
0,
0,
0,
0,
0,
0,
0,
0,
0,
0,
0,
0,
0,
0,
0,
0,
0,
0,
0,
0,
0,
0,
0,
0,
#ENDOFDATA   :

File: SPI MM2 SPI Monazite[4][4].msa
#FORMAT      : EMSA/MAS Spectral Data File
#VERSION     : 1.0
#TITLE       : SPI MM2 SPI Monazite[4][all]
#DATE        : 13-MAR-2025
#TIME        : 10:08
#OWNER       : Unknown
#NPOINTS     : 4096
#NCOLUMNS    : 1
#XUNITS      : eV
#YUNITS      : counts
#DATATYPE    : Y
#XPERCHAN    : 9.99778
#OFFSET      : 1.69135
#BEAMKV      : 20
#SIGNALTYPE  : EDS
#ELEVANGLE   : 35
#AZIMANGLE   : 0
#LIVETIME    : 240.007
#REALTIME    : 258.4679
#PROBECUR    : 1.02627
#TAUWIND     : 0
#TDEADLYR    : 0
#TACTLYR     : 0.045
#TALWIND     : 0.025
#CHOFFSET    : 0.0
#XLABEL      : Energy (eV)
#YLABEL      : Counts
#XPOSITION   : 2.35645
#YPOSITION   : -2.77951
#ZPOSITION   : 31.03509
#EDSDET      : SD
##SPECIMEN   : SPI MM2 SPI Monazite[4][all]
##D2STDCMP   : SPI Monazite,(O:26.45),(Si:0.83),(P:11.85),(Ca:0.65),(Y:1.59),(La:7.84),(Ce:19.96),(Pr:2.47),(Nd:9.68),(Sm:3.7),(Eu:0.38),(Gd:2.89),(Tb:0.35),(Dy:1.21),(Pb:0.25),(Th:9.7),(U:0.16),5.0
##DET_HASH   : 12273538-fd48-a23f-0a19-f1e6fa85caef
##CALIB_HASH : 6abaa72c-aa41-8738-0be9-f592914732f3
##WORKING    : 15.0 mm
##DET_NAME   : EDAX All
##DET_MODE   : MediumLE
#SPECTRUM    :
15,
429,
17618,
7832,
40282,
9387,
10964,
9054,
7303,
6502,
5661,
5653,
7456,
7213,
35819,
12806,
5152,
6093,
5310,
5214,
5221,
11346,
11111,
7895,
6157,
4723,
6060,
4852,
4462,
4694,
4427,
4503,
4234,
13007,
13222,
16944,
12160,
15387,
15481,
6411,
10921,
9081,
4325,
7020,
5339,
4215,
3587,
3990,
3352,
2777,
2507,
2712,
2599,
2280,
2120,
2140,
1987,
1931,
2011,
1864,
1829,
1707,
1790,
1641,
1575,
1580,
1459,
1418,
1485,
1338,
1366,
1329,
1260,
1239,
1228,
1234,
1147,
1094,
1128,
1040,
1011,
1000,
988,
956,
868,
852,
871,
766,
822,
712,
750,
649,
860,
800,
603,
568,
553,
517,
532,
481,
460,
434,
432,
445,
400,
359,
380,
373,
317,
307,
277,
277,
262,
258,
210,
232,
204,
176,
175,
151,
139,
162,
120,
129,
121,
110,
97,
83,
97,
75,
81,
67,
65,
52,
40,
44,
31,
37,
21,
18,
13,
13,
7,
2,
5,
2,
3,
2,
1,
3,
0,
0,
0,
0,
2,
1,
3,
0,
3,
1,
0,
0,
0,
0,
1,
0,
0,
1,
0,
1,
0,
0,
0,
1,
1,
0,
0,
1,
0,
0,
0,
0,
0,
0,
0,
0,
0,
1,
0,
0,
0,
1,
0,
1,
1,
0,
0,
0,
0,
0,
0,
0,
0,
0,
0,
0,
0,
0,
0,
0,
0,
0,
0,
0,
1,
0,
0,
0,
0,
0,
0,
0,
0,
0,
0,
0,
0,
0,
0,
0,
0,
0,
0,
0,
0,
0,
0,
0,
0,
0,
0,
0,
0,
0,
0,
0,
0,
0,
0,
0,
0,
0,
0,
0,
0,
0,
0,
0,
0,
0,
0,
0,
0,
0,
0,
0,
0,
0,
0,
0,
0,
0,
0,
0,
0,
0,
0,
0,
0,
0,
0,
0,
0,
0,
0,
0,
0,
0,
0,
0,
0,
0,
0,
0,
#ENDOFDATA   :

File: SPI MM2 SPI Monazite[5][4].msa
#FORMAT      : EMSA/MAS Spectral Data File
#VERSION     : 1.0
#TITLE       : SPI MM2 SPI Monazite[5][all]
#DATE        : 13-MAR-2025
#TIME        : 10:09
#OWNER       : Unknown
#NPOINTS     : 4096
#NCOLUMNS    : 1
#XUNITS      : eV
#YUNITS      : counts
#DATATYPE    : Y
#XPERCHAN    : 9.99778
#OFFSET      : 1.69135
#BEAMKV      : 20
#SIGNALTYPE  : EDS
#ELEVANGLE   : 35
#AZIMANGLE   : 0
#LIVETIME    : 239.98
#REALTIME    : 258.542
#PROBECUR    : 1.02627
#TAUWIND     : 0
#TDEADLYR    : 0
#TACTLYR     : 0.045
#TALWIND     : 0.025
#CHOFFSET    : 0.0
#XLABEL      : Energy (eV)
#YLABEL      : Counts
#XPOSITION   : 2.344
#YPOSITION   : -2.701
#ZPOSITION   : 31.03509
#EDSDET      : SD
##SPECIMEN   : SPI MM2 SPI Monazite[5][all]
##D2STDCMP   : SPI Monazite,(O:26.45),(Si:0.83),(P:11.85),(Ca:0.65),(Y:1.59),(La:7.84),(Ce:19.96),(Pr:2.47),(Nd:9.68),(Sm:3.7),(Eu:0.38),(Gd:2.89),(Tb:0.35),(Dy:1.21),(Pb:0.25),(Th:9.7),(U:0.16),5.0
##DET_HASH   : 12273538-fd48-a23f-0a19-f1e6fa85caef
##CALIB_HASH : 6abaa72c-aa41-8738-0be9-f592914732f3
##WORKING    : 15.0 mm
##DET_NAME   : EDAX All
##DET_MODE   : MediumLE
#SPECTRUM    :
23,
417,
17381,
8029,
40836,
9332,
10956,
9447,
7349,
6675,
5654,
5668,
7498,
7230,
36463,
12793,
5109,
5956,
5386,
5164,
5202,
11531,
11080,
7725,
6116,
4782,
5974,
4795,
4381,
4838,
4433,
4649,
4248,
13165,
13423,
16911,
12015,
15232,
15572,
6165,
10968,
9227,
4382,
7039,
5363,
4119,
3574,
3986,
3368,
2859,
2640,
2722,
2498,
2351,
2121,
2173,
2128,
1931,
1979,
1836,
1815,
1822,
1747,
1601,
1633,
1536,
1520,
1454,
1387,
1357,
1339,
1328,
1326,
1260,
1247,
1210,
1212,
1121,
1060,
1040,
1032,
985,
960,
936,
845,
839,
859,
802,
742,
702,
738,
759,
769,
744,
584,
583,
551,
512,
530,
503,
458,
455,
413,
389,
383,
365,
355,
361,
305,
326,
316,
291,
266,
236,
232,
216,
202,
207,
161,
177,
160,
142,
137,
119,
122,
95,
114,
102,
89,
77,
79,
64,
58,
45,
56,
39,
31,
33,
29,
14,
9,
14,
0,
2,
3,
2,
2,
1,
1,
1,
1,
0,
3,
2,
1,
2,
2,
0,
0,
1,
1,
1,
1,
0,
0,
0,
0,
0,
1,
0,
0,
0,
1,
1,
2,
0,
1,
0,
0,
1,
0,
0,
0,
0,
0,
2,
0,
0,
0,
0,
3,
0,
1,
1,
0,
0,
0,
0,
0,
0,
0,
0,
0,
1,
0,
0,
0,
0,
0,
0,
1,
0,
0,
0,
0,
0,
0,
0,
0,
0,
0,
0,
0,
0,
0,
0,
0,
0,
0,
0,
0,
0,
0,
0,
0,
0,
0,
0,
1,
0,
0,
0,
0,
0,
0,
0,
0,
0,
0,
0,
0,
0,
0,
0,
0,
0,
0,
0,
0,
0,
0,
0,
0,
0,
0,
0,
0,
0,
0,
0,
0,
0,
0,
0,
0,
0,
0,
0,
0,
0,
0,
0,
0,
0,
0,
0,
0,
0,
0,
0,
0,
0,
0,
0,
#ENDOFDATA   :

File: SPI MM2 SPI Monazite[6][4].msa
#FORMAT      : EMSA/MAS Spectral Data File
#VERSION     : 1.0
#TITLE       : SPI MM2 SPI Monazite[6][all]
#DATE        : 13-MAR-2025
#TIME        : 10:10
#OWNER       : Unknown
#NPOINTS     : 4096
#NCOLUMNS    : 1
#XUNITS      : eV
#YUNITS      : counts
#DATATYPE    : Y
#XPERCHAN    : 9.99778
#OFFSET      : 1.69135
#BEAMKV      : 20
#SIGNALTYPE  : EDS
#ELEVANGLE   : 35
#AZIMANGLE   : 0
#LIVETIME    : 239.931
#REALTIME    : 258.478
#PROBECUR    : 1.02627
#TAUWIND     : 0
#TDEADLYR    : 0
#TACTLYR     : 0.045
#TALWIND     : 0.025
#CHOFFSET    : 0.0
#XLABEL      : Energy (eV)
#YLABEL      : Counts
#XPOSITION   : 2.37071
#YPOSITION   : -2.77189
#ZPOSITION   : 31.03509
#EDSDET      : SD
##SPECIMEN   : SPI MM2 SPI Monazite[6][all]
##D2STDCMP   : SPI Monazite,(O:26.45),(Si:0.83),(P:11.85),(Ca:0.65),(Y:1.59),(La:7.84),(Ce:19.96),(Pr:2.47),(Nd:9.68),(Sm:3.7),(Eu:0.38),(Gd:2.89),(Tb:0.35),(Dy:1.21),(Pb:0.25),(Th:9.7),(U:0.16),5.0
##DET_HASH   : 12273538-fd48-a23f-0a19-f1e6fa85caef
##CALIB_HASH : 6abaa72c-aa41-8738-0be9-f592914732f3
##WORKING    : 15.0 mm
##DET_NAME   : EDAX All
##DET_MODE   : MediumLE
#SPECTRUM    :
32,
423,
17620,
7984,
40584,
9319,
10626,
9149,
7416,
6502,
5859,
5663,
7442,
7218,
36124,
12700,
5190,
5921,
5367,
5340,
5253,
11620,
11109,
7920,
6131,
4758,
6079,
4809,
4578,
4744,
4491,
4538,
4313,
13043,
13563,
17037,
11869,
15298,
15488,
6289,
10805,
9445,
4313,
6909,
5499,
4275,
3599,
4070,
3395,
2762,
2698,
2788,
2385,
2403,
2258,
2219,
2112,
1918,
1967,
1842,
1778,
1782,
1673,
1693,
1629,
1611,
1478,
1535,
1436,
1445,
1377,
1287,
1275,
1277,
1244,
1203,
1156,
1083,
1117,
1122,
1060,
986,
919,
921,
926,
851,
810,
758,
785,
737,
726,
767,
812,
729,
565,
558,
551,
510,
515,
459,
484,
468,
423,
435,
405,
340,
349,
384,
308,
300,
286,
302,
277,
229,
223,
221,
205,
190,
194,
170,
153,
146,
145,
125,
121,
117,
102,
93,
76,
80,
88,
60,
51,
53,
59,
41,
38,
36,
28,
16,
17,
11,
3,
2,
4,
3,
0,
1,
1,
1,
1,
1,
1,
1,
0,
0,
1,
1,
1,
1,
1,
0,
0,
0,
2,
0,
1,
2,
0,
0,
0,
0,
0,
0,
0,
0,
0,
0,
0,
1,
0,
1,
1,
1,
0,
0,
0,
0,
1,
0,
0,
0,
0,
0,
0,
0,
0,
0,
0,
0,
0,
0,
0,
0,
0,
0,
0,
0,
0,
0,
0,
0,
0,
0,
1,
0,
0,
0,
0,
0,
0,
0,
0,
0,
0,
0,
0,
0,
0,
0,
0,
0,
0,
0,
0,
0,
0,
0,
0,
0,
0,
0,
0,
0,
0,
0,
0,
0,
0,
0,
0,
0,
0,
0,
0,
0,
0,
0,
0,
0,
0,
0,
0,
0,
0,
0,
0,
0,
0,
0,
0,
0,
0,
0,
0,
0,
0,
0,
0,
0,
0,
0,
0,
0,
0,
0,
0,
0,
0,
0,
0,
0,
0,
0,
#ENDOFDATA   :

File: SPI MM2 SPI Monazite[7][4].msa
#FORMAT      : EMSA/MAS Spectral Data File
#VERSION     : 1.0
#TITLE       : SPI MM2 SPI Monazite[7][all]
#DATE        : 13-MAR-2025
#TIME        : 10:12
#OWNER       : Unknown
#NPOINTS     : 4096
#NCOLUMNS    : 1
#XUNITS      : eV
#YUNITS      : counts
#DATATYPE    : Y
#XPERCHAN    : 9.99778
#OFFSET      : 1.69135
#BEAMKV      : 20
#SIGNALTYPE  : EDS
#ELEVANGLE   : 35
#AZIMANGLE   : 0
#LIVETIME    : 239.873
#REALTIME    : 258.41
#PROBECUR    : 1.02627
#TAUWIND     : 0
#TDEADLYR    : 0
#TACTLYR     : 0.045
#TALWIND     : 0.025
#CHOFFSET    : 0.0
#XLABEL      : Energy (eV)
#YLABEL      : Counts
#XPOSITION   : 2.43888
#YPOSITION   : -2.74666
#ZPOSITION   : 31.03509
#EDSDET      : SD
##SPECIMEN   : SPI MM2 SPI Monazite[7][all]
##D2STDCMP   : SPI Monazite,(O:26.45),(Si:0.83),(P:11.85),(Ca:0.65),(Y:1.59),(La:7.84),(Ce:19.96),(Pr:2.47),(Nd:9.68),(Sm:3.7),(Eu:0.38),(Gd:2.89),(Tb:0.35),(Dy:1.21),(Pb:0.25),(Th:9.7),(U:0.16),5.0
##DET_HASH   : 12273538-fd48-a23f-0a19-f1e6fa85caef
##CALIB_HASH : 6abaa72c-aa41-8738-0be9-f592914732f3
##WORKING    : 15.0 mm
##DET_NAME   : EDAX All
##DET_MODE   : MediumLE
#SPECTRUM    :
32,
416,
17290,
7981,
40809,
9484,
11026,
9130,
7302,
6420,
5757,
5571,
7562,
7328,
36325,
12890,
5247,
5966,
5200,
5371,
5143,
11434,
11205,
7887,
6027,
4724,
5901,
4863,
4504,
4758,
4530,
4539,
4275,
13276,
13371,
17070,
12078,
15352,
15657,
6117,
10779,
9259,
4436,
6973,
5424,
4251,
3510,
4069,
3355,
2716,
2622,
2712,
2432,
2339,
2185,
2217,
2085,
1986,
1839,
1803,
1877,
1795,
1709,
1623,
1624,
1507,
1584,
1513,
1456,
1427,
1334,
1362,
1321,
1234,
1234,
1238,
1220,
1126,
1141,
1052,
1013,
1012,
861,
921,
923,
838,
839,
794,
736,
743,
703,
687,
831,
795,
612,
597,
546,
533,
495,
446,
479,
458,
450,
408,
368,
378,
363,
370,
292,
286,
289,
320,
278,
238,
224,
199,
202,
175,
161,
179,
161,
140,
134,
117,
137,
88,
104,
82,
77,
88,
69,
60,
54,
38,
47,
33,
29,
40,
17,
16,
17,
6,
4,
4,
4,
3,
3,
4,
1,
2,
0,
0,
1,
1,
2,
1,
0,
0,
0,
0,
0,
0,
2,
0,
0,
0,
0,
1,
0,
1,
0,
0,
1,
1,
2,
0,
0,
0,
0,
0,
0,
0,
1,
1,
0,
0,
1,
0,
0,
0,
0,
0,
0,
0,
0,
1,
0,
0,
0,
0,
0,
0,
0,
0,
0,
0,
0,
0,
0,
0,
0,
0,
0,
0,
0,
0,
0,
0,
0,
0,
0,
0,
0,
0,
0,
0,
0,
0,
0,
0,
0,
0,
0,
0,
0,
0,
0,
0,
0,
0,
0,
0,
0,
0,
0,
0,
0,
0,
0,
0,
0,
0,
0,
0,
0,
0,
0,
0,
0,
0,
0,
0,
0,
0,
0,
0,
0,
0,
0,
0,
0,
0,
0,
0,
0,
0,
0,
0,
0,
0,
0,
0,
0,
0,
0,
0,
0,
0,
0,
0,
0,
0,
0,
0,
#ENDOFDATA   :

File: SPI MM2 SPI Obsidian[0][4].msa
#FORMAT      : EMSA/MAS Spectral Data File
#VERSION     : 1.0
#TITLE       : SPI MM2 SPI Obsidian[0][all]
#DATE        : 13-MAR-2025
#TIME        : 09:54
#OWNER       : Unknown
#NPOINTS     : 4096
#NCOLUMNS    : 1
#XUNITS      : eV
#YUNITS      : counts
#DATATYPE    : Y
#XPERCHAN    : 9.99778
#OFFSET      : 1.69135
#BEAMKV      : 20
#SIGNALTYPE  : EDS
#ELEVANGLE   : 35
#AZIMANGLE   : 0
#LIVETIME    : 239.8575
#REALTIME    : 256.3
#PROBECUR    : 1.02627
#TAUWIND     : 0
#TDEADLYR    : 0
#TACTLYR     : 0.045
#TALWIND     : 0.025
#CHOFFSET    : 0.0
#XLABEL      : Energy (eV)
#YLABEL      : Counts
#XPOSITION   : 0.0269
#YPOSITION   : -2.97551
#ZPOSITION   : 31.03509
#EDSDET      : SD
##SPECIMEN   : SPI MM2 SPI Obsidian[0][all]
##D2STDCMP   : SPI Obsidian,(O:49.01),(Na:2.77),(Mg:0.06),(Al:6.9),(Si:35.66),(K:3.58),(Ca:0.63),(Ti:0.06),(Mn:0.04),(Fe:0.59),5.0
##DET_HASH   : 12273538-fd48-a23f-0a19-f1e6fa85caef
##CALIB_HASH : 6abaa72c-aa41-8738-0be9-f592914732f3
##WORKING    : 15.0 mm
##DET_NAME   : EDAX All
##DET_MODE   : MediumLE
#SPECTRUM    :
23,
175,
8811,
5652,
57685,
2673,
2616,
6487,
4247,
4591,
8044,
25284,
89040,
40835,
2237,
2266,
2945,
2184,
2254,
2293,
2174,
2184,
2035,
4241,
12154,
2841,
4406,
2184,
1757,
1890,
1605,
1525,
1783,
1504,
1454,
1324,
1278,
1257,
1221,
1137,
1166,
1102,
1123,
1112,
942,
1199,
1885,
867,
906,
841,
867,
827,
698,
751,
683,
646,
640,
631,
655,
600,
526,
596,
516,
503,
495,
426,
470,
439,
433,
429,
384,
375,
402,
335,
341,
332,
315,
299,
268,
275,
270,
246,
268,
212,
244,
205,
215,
230,
201,
178,
174,
168,
140,
153,
140,
138,
154,
130,
102,
112,
118,
114,
97,
85,
75,
86,
76,
77,
81,
80,
63,
72,
54,
51,
46,
39,
39,
47,
30,
41,
28,
25,
20,
23,
14,
22,
17,
18,
12,
11,
15,
5,
6,
6,
6,
7,
4,
4,
3,
0,
1,
1,
0,
0,
0,
0,
0,
0,
0,
0,
0,
0,
0,
0,
0,
0,
0,
0,
0,
0,
0,
0,
0,
0,
0,
0,
0,
0,
0,
0,
0,
0,
0,
0,
0,
0,
0,
0,
0,
0,
0,
0,
0,
0,
0,
0,
0,
0,
0,
0,
0,
0,
0,
0,
0,
0,
0,
0,
0,
0,
0,
0,
0,
0,
0,
0,
0,
0,
0,
0,
0,
0,
0,
0,
0,
0,
0,
0,
0,
0,
0,
0,
0,
0,
0,
0,
0,
0,
0,
0,
0,
0,
0,
0,
0,
0,
0,
0,
0,
0,
0,
0,
0,
0,
0,
0,
0,
0,
0,
0,
0,
0,
0,
0,
0,
0,
0,
0,
0,
0,
0,
0,
0,
0,
0,
0,
0,
0,
0,
0,
0,
0,
0,
0,
0,
0,
0,
0,
0,
0,
0,
0,
0,
0,
0,
0,
0,
0,
0,
0,
0,
0,
0,
0,
#ENDOFDATA   :

File: SPI MM2 SPI Obsidian[1][4].msa
#FORMAT      : EMSA/MAS Spectral Data File
#VERSION     : 1.0
#TITLE       : SPI MM2 SPI Obsidian[1][all]
#DATE        : 13-MAR-2025
#TIME        : 09:56
#OWNER       : Unknown
#NPOINTS     : 4096
#NCOLUMNS    : 1
#XUNITS      : eV
#YUNITS      : counts
#DATATYPE    : Y
#XPERCHAN    : 9.99778
#OFFSET      : 1.69135
#BEAMKV      : 20
#SIGNALTYPE  : EDS
#ELEVANGLE   : 35
#AZIMANGLE   : 0
#LIVETIME    : 239.811
#REALTIME    : 256.239
#PROBECUR    : 1.02627
#TAUWIND     : 0
#TDEADLYR    : 0
#TACTLYR     : 0.045
#TALWIND     : 0.025
#CHOFFSET    : 0.0
#XLABEL      : Energy (eV)
#YLABEL      : Counts
#XPOSITION   : 0.09595
#YPOSITION   : -2.97747
#ZPOSITION   : 31.03509
#EDSDET      : SD
##SPECIMEN   : SPI MM2 SPI Obsidian[1][all]
##D2STDCMP   : SPI Obsidian,(O:49.01),(Na:2.77),(Mg:0.06),(Al:6.9),(Si:35.66),(K:3.58),(Ca:0.63),(Ti:0.06),(Mn:0.04),(Fe:0.59),5.0
##DET_HASH   : 12273538-fd48-a23f-0a19-f1e6fa85caef
##CALIB_HASH : 6abaa72c-aa41-8738-0be9-f592914732f3
##WORKING    : 15.0 mm
##DET_NAME   : EDAX All
##DET_MODE   : MediumLE
#SPECTRUM    :
26,
169,
8624,
5699,
57681,
2667,
2587,
6389,
4201,
4605,
8145,
25181,
88437,
40624,
2360,
2250,
2903,
2296,
2166,
2272,
2161,
2126,
2131,
4230,
12125,
2853,
4251,
2183,
1747,
1854,
1484,
1515,
1714,
1497,
1441,
1417,
1322,
1262,
1210,
1170,
1112,
1087,
1036,
1016,
937,
1213,
1853,
875,
862,
826,
899,
855,
753,
733,
712,
683,
616,
602,
543,
573,
521,
534,
539,
525,
467,
462,
466,
423,
422,
427,
396,
359,
394,
365,
347,
333,
338,
312,
296,
283,
272,
235,
235,
221,
229,
222,
233,
184,
184,
164,
153,
174,
150,
155,
160,
148,
132,
136,
118,
130,
130,
96,
105,
80,
90,
81,
69,
81,
50,
59,
67,
50,
63,
56,
59,
49,
40,
32,
33,
33,
32,
25,
25,
28,
23,
23,
14,
20,
13,
13,
13,
15,
6,
6,
6,
8,
6,
4,
5,
2,
0,
2,
1,
1,
0,
0,
0,
0,
0,
0,
0,
0,
0,
0,
0,
0,
0,
0,
0,
1,
0,
0,
0,
0,
0,
0,
0,
0,
0,
0,
0,
0,
0,
1,
0,
0,
0,
0,
0,
0,
0,
0,
0,
0,
0,
0,
0,
0,
0,
0,
0,
0,
0,
0,
0,
0,
0,
0,
0,
0,
0,
0,
0,
0,
0,
0,
0,
0,
0,
0,
0,
0,
0,
0,
0,
0,
0,
0,
0,
0,
0,
0,
0,
0,
0,
0,
0,
0,
0,
0,
0,
0,
0,
0,
0,
0,
0,
0,
0,
0,
0,
0,
0,
0,
0,
0,
0,
0,
0,
0,
0,
0,
0,
0,
0,
0,
0,
0,
0,
0,
0,
0,
0,
0,
0,
0,
0,
0,
0,
0,
0,
0,
0,
0,
0,
0,
0,
0,
0,
0,
0,
0,
0,
0,
0,
0,
0,
0,
0,
0,
0,
0,
0,
0,
#ENDOFDATA   :

File: SPI MM2 SPI Obsidian[2][4].msa
#FORMAT      : EMSA/MAS Spectral Data File
#VERSION     : 1.0
#TITLE       : SPI MM2 SPI Obsidian[2][all]
#DATE        : 13-MAR-2025
#TIME        : 09:57
#OWNER       : Unknown
#NPOINTS     : 4096
#NCOLUMNS    : 1
#XUNITS      : eV
#YUNITS      : counts
#DATATYPE    : Y
#XPERCHAN    : 9.99778
#OFFSET      : 1.69135
#BEAMKV      : 20
#SIGNALTYPE  : EDS
#ELEVANGLE   : 35
#AZIMANGLE   : 0
#LIVETIME    : 239.876
#REALTIME    : 256.301
#PROBECUR    : 1.02627
#TAUWIND     : 0
#TDEADLYR    : 0
#TACTLYR     : 0.045
#TALWIND     : 0.025
#CHOFFSET    : 0.0
#XLABEL      : Energy (eV)
#YLABEL      : Counts
#XPOSITION   : 0.07007
#YPOSITION   : -2.97506
#ZPOSITION   : 31.03509
#EDSDET      : SD
##SPECIMEN   : SPI MM2 SPI Obsidian[2][all]
##D2STDCMP   : SPI Obsidian,(O:49.01),(Na:2.77),(Mg:0.06),(Al:6.9),(Si:35.66),(K:3.58),(Ca:0.63),(Ti:0.06),(Mn:0.04),(Fe:0.59),5.0
##DET_HASH   : 12273538-fd48-a23f-0a19-f1e6fa85caef
##CALIB_HASH : 6abaa72c-aa41-8738-0be9-f592914732f3
##WORKING    : 15.0 mm
##DET_NAME   : EDAX All
##DET_MODE   : MediumLE
#SPECTRUM    :
31,
180,
8393,
5723,
57703,
2641,
2757,
6517,
4264,
4695,
8222,
25130,
87563,
40771,
2231,
2205,
2947,
2174,
2288,
2210,
2236,
2184,
2154,
4119,
12295,
2848,
4394,
2236,
1750,
1905,
1570,
1463,
1738,
1457,
1420,
1376,
1333,
1241,
1239,
1208,
1130,
1129,
1103,
1022,
979,
1220,
1906,
901,
850,
841,
851,
810,
776,
751,
680,
658,
600,
635,
610,
600,
591,
532,
537,
506,
459,
515,
453,
421,
441,
427,
389,
384,
384,
347,
330,
330,
291,
276,
291,
309,
265,
250,
257,
227,
236,
224,
205,
181,
189,
172,
191,
162,
160,
145,
139,
147,
120,
129,
97,
109,
118,
118,
105,
85,
94,
82,
63,
56,
61,
55,
73,
66,
62,
52,
37,
35,
51,
37,
32,
26,
32,
31,
28,
24,
20,
20,
18,
24,
19,
11,
10,
5,
12,
7,
7,
4,
5,
4,
5,
2,
2,
0,
0,
0,
0,
0,
0,
0,
0,
0,
0,
0,
0,
0,
0,
0,
0,
0,
0,
0,
0,
0,
0,
0,
0,
0,
0,
0,
0,
0,
0,
0,
0,
0,
0,
0,
0,
0,
0,
0,
0,
0,
0,
0,
0,
0,
0,
0,
0,
0,
0,
0,
0,
0,
0,
0,
0,
0,
0,
0,
0,
0,
0,
0,
0,
0,
0,
0,
0,
0,
0,
0,
0,
0,
0,
0,
0,
0,
0,
0,
0,
0,
0,
0,
0,
0,
0,
0,
0,
0,
0,
0,
0,
0,
0,
0,
0,
0,
0,
0,
0,
0,
0,
0,
0,
0,
0,
0,
0,
0,
0,
0,
0,
0,
0,
0,
0,
0,
0,
0,
0,
0,
0,
0,
0,
0,
0,
0,
0,
0,
0,
0,
0,
0,
0,
0,
0,
0,
0,
0,
0,
0,
0,
0,
0,
0,
0,
0,
0,
0,
0,
0,
0,
0,
#ENDOFDATA   :