Folder: spex_quant/N132962/Quantification/20 keV/MMM2 (part 16)

File: SPI MM2 Uvarovite[3][4].msa
#FORMAT      : EMSA/MAS Spectral Data File
#VERSION     : 1.0
#TITLE       : SPI MM2 Uvarovite[3][all]
#DATE        : 13-MAR-2025
#TIME        : 14:15
#OWNER       : Unknown
#NPOINTS     : 4096
#NCOLUMNS    : 1
#XUNITS      : eV
#YUNITS      : counts
#DATATYPE    : Y
#XPERCHAN    : 9.99778
#OFFSET      : 1.69135
#BEAMKV      : 20
#SIGNALTYPE  : EDS
#ELEVANGLE   : 35
#AZIMANGLE   : 0
#LIVETIME    : 239.758
#REALTIME    : 255.215
#PROBECUR    : 1.02609
#TAUWIND     : 0
#TDEADLYR    : 0
#TACTLYR     : 0.045
#TALWIND     : 0.025
#CHOFFSET    : 0.0
#XLABEL      : Energy (eV)
#YLABEL      : Counts
#XPOSITION   : 5.68505
#YPOSITION   : 6.4181
#ZPOSITION   : 31.03511
#EDSDET      : SD
##SPECIMEN   : SPI MM2 Uvarovite[3][all]
##DET_HASH   : 12273538-fd48-a23f-0a19-f1e6fa85caef
##CALIB_HASH : 6abaa72c-aa41-8738-0be9-f592914732f3
##WORKING    : 15.0 mm
##DET_NAME   : EDAX All
##DET_MODE   : MediumLE
#SPECTRUM    :
23,
211,
13372,
4222,
31587,
2628,
2461,
2999,
3495,
4206,
6133,
12897,
43523,
21413,
4611,
3331,
3545,
3179,
3289,
3159,
3127,
3003,
2941,
2921,
2703,
3306,
63962,
22328,
4799,
11288,
1984,
1834,
4377,
2022,
1719,
2283,
1797,
1658,
9123,
22400,
1589,
1504,
3546,
2897,
1137,
1552,
2457,
1115,
1067,
1031,
1117,
1118,
967,
1002,
900,
886,
873,
801,
783,
786,
724,
655,
685,
645,
656,
666,
623,
616,
559,
546,
515,
510,
471,
474,
462,
470,
417,
428,
384,
390,
383,
365,
349,
315,
314,
326,
272,
285,
276,
261,
229,
210,
217,
236,
205,
195,
162,
186,
181,
151,
140,
124,
122,
138,
133,
124,
102,
110,
85,
78,
75,
73,
66,
83,
72,
51,
64,
64,
57,
38,
34,
44,
41,
26,
41,
24,
30,
27,
24,
14,
18,
11,
24,
11,
12,
6,
10,
7,
4,
1,
7,
3,
1,
0,
0,
1,
0,
0,
0,
1,
1,
0,
0,
0,
0,
0,
0,
0,
0,
0,
0,
0,
0,
0,
0,
0,
0,
0,
0,
0,
0,
0,
0,
0,
0,
0,
0,
0,
0,
0,
0,
0,
0,
0,
0,
0,
0,
0,
0,
0,
0,
0,
0,
0,
0,
0,
0,
0,
0,
0,
0,
0,
0,
0,
0,
0,
0,
0,
0,
0,
0,
0,
0,
0,
0,
0,
0,
0,
0,
0,
0,
0,
0,
0,
0,
0,
0,
0,
0,
0,
0,
0,
0,
0,
0,
0,
0,
0,
0,
0,
0,
0,
0,
0,
0,
0,
0,
0,
0,
0,
0,
0,
0,
0,
0,
0,
0,
0,
0,
0,
0,
0,
0,
0,
0,
0,
0,
0,
0,
0,
0,
0,
0,
0,
0,
0,
0,
0,
0,
0,
0,
0,
0,
0,
0,
0,
0,
0,
0,
0,
0,
0,
0,
0,
#ENDOFDATA   :

File: SPI MM2 Uvarovite[4][4].msa
#FORMAT      : EMSA/MAS Spectral Data File
#VERSION     : 1.0
#TITLE       : SPI MM2 Uvarovite[4][all]
#DATE        : 13-MAR-2025
#TIME        : 14:16
#OWNER       : Unknown
#NPOINTS     : 4096
#NCOLUMNS    : 1
#XUNITS      : eV
#YUNITS      : counts
#DATATYPE    : Y
#XPERCHAN    : 9.99778
#OFFSET      : 1.69135
#BEAMKV      : 20
#SIGNALTYPE  : EDS
#ELEVANGLE   : 35
#AZIMANGLE   : 0
#LIVETIME    : 239.742
#REALTIME    : 255.202
#PROBECUR    : 1.02609
#TAUWIND     : 0
#TDEADLYR    : 0
#TACTLYR     : 0.045
#TALWIND     : 0.025
#CHOFFSET    : 0.0
#XLABEL      : Energy (eV)
#YLABEL      : Counts
#XPOSITION   : 5.67741
#YPOSITION   : 6.40559
#ZPOSITION   : 31.03511
#EDSDET      : SD
##SPECIMEN   : SPI MM2 Uvarovite[4][all]
##DET_HASH   : 12273538-fd48-a23f-0a19-f1e6fa85caef
##CALIB_HASH : 6abaa72c-aa41-8738-0be9-f592914732f3
##WORKING    : 15.0 mm
##DET_NAME   : EDAX All
##DET_MODE   : MediumLE
#SPECTRUM    :
31,
199,
13664,
4091,
32092,
2462,
2435,
3011,
3520,
4250,
6074,
12703,
43476,
21584,
4488,
3335,
3635,
3234,
3173,
3205,
3091,
2961,
2926,
2898,
2673,
3347,
63990,
22346,
4931,
11213,
1972,
1809,
4392,
2029,
1608,
2290,
1783,
1654,
9118,
22489,
1526,
1414,
3588,
2882,
1224,
1554,
2344,
988,
1034,
1056,
1112,
1060,
921,
987,
908,
903,
803,
833,
785,
761,
699,
730,
671,
695,
639,
622,
554,
560,
579,
564,
516,
530,
468,
505,
475,
446,
420,
430,
399,
356,
379,
346,
345,
325,
305,
290,
281,
259,
248,
246,
236,
269,
223,
233,
200,
196,
171,
178,
161,
167,
162,
150,
137,
145,
127,
107,
105,
99,
104,
104,
89,
87,
73,
68,
63,
52,
57,
54,
59,
48,
42,
39,
44,
46,
45,
31,
24,
23,
25,
15,
22,
14,
17,
12,
8,
8,
8,
4,
7,
5,
3,
1,
0,
0,
0,
0,
1,
1,
0,
0,
0,
1,
0,
0,
0,
0,
0,
0,
1,
0,
1,
0,
1,
0,
0,
0,
0,
0,
0,
0,
0,
0,
0,
0,
0,
0,
0,
0,
0,
0,
0,
0,
0,
0,
0,
0,
0,
0,
0,
0,
0,
0,
0,
0,
0,
0,
0,
0,
0,
0,
0,
0,
0,
0,
0,
0,
0,
0,
0,
0,
0,
0,
0,
0,
0,
0,
0,
0,
0,
0,
0,
0,
0,
0,
0,
0,
0,
0,
0,
0,
0,
0,
0,
0,
0,
0,
0,
0,
0,
0,
0,
0,
0,
0,
0,
0,
0,
0,
0,
0,
0,
0,
0,
0,
0,
0,
0,
0,
0,
0,
0,
0,
0,
0,
0,
0,
0,
0,
0,
0,
0,
0,
0,
0,
0,
0,
0,
0,
0,
0,
0,
0,
0,
0,
0,
0,
0,
0,
0,
0,
0,
0,
0,
0,
#ENDOFDATA   :

File: SPI MM2 Uvarovite[5][4].msa
#FORMAT      : EMSA/MAS Spectral Data File
#VERSION     : 1.0
#TITLE       : SPI MM2 Uvarovite[5][all]
#DATE        : 13-MAR-2025
#TIME        : 14:17
#OWNER       : Unknown
#NPOINTS     : 4096
#NCOLUMNS    : 1
#XUNITS      : eV
#YUNITS      : counts
#DATATYPE    : Y
#XPERCHAN    : 9.99778
#OFFSET      : 1.69135
#BEAMKV      : 20
#SIGNALTYPE  : EDS
#ELEVANGLE   : 35
#AZIMANGLE   : 0
#LIVETIME    : 239.891
#REALTIME    : 255.409
#PROBECUR    : 1.02609
#TAUWIND     : 0
#TDEADLYR    : 0
#TACTLYR     : 0.045
#TALWIND     : 0.025
#CHOFFSET    : 0.0
#XLABEL      : Energy (eV)
#YLABEL      : Counts
#XPOSITION   : 5.8138
#YPOSITION   : 6.39463
#ZPOSITION   : 31.03511
#EDSDET      : SD
##SPECIMEN   : SPI MM2 Uvarovite[5][all]
##DET_HASH   : 12273538-fd48-a23f-0a19-f1e6fa85caef
##CALIB_HASH : 6abaa72c-aa41-8738-0be9-f592914732f3
##WORKING    : 15.0 mm
##DET_NAME   : EDAX All
##DET_MODE   : MediumLE
#SPECTRUM    :
21,
191,
13374,
4158,
32437,
2698,
2424,
3055,
3548,
4304,
6106,
13417,
44279,
21678,
4362,
3313,
3573,
3249,
3210,
3066,
3053,
3063,
2748,
2812,
2673,
3356,
63882,
22347,
4925,
11355,
2006,
1811,
3920,
2002,
1726,
2328,
1779,
1677,
8742,
22409,
1572,
1483,
3444,
2818,
1215,
1574,
2536,
1085,
1033,
1060,
1130,
1086,
947,
1041,
940,
864,
825,
780,
775,
724,
702,
702,
654,
663,
668,
648,
604,
665,
567,
529,
526,
557,
518,
503,
451,
449,
429,
428,
389,
366,
373,
379,
320,
319,
338,
281,
273,
262,
257,
268,
239,
232,
212,
207,
198,
198,
190,
167,
142,
169,
169,
143,
140,
106,
116,
110,
100,
111,
102,
101,
88,
90,
93,
75,
73,
79,
66,
60,
59,
46,
42,
45,
29,
34,
31,
32,
20,
31,
29,
16,
14,
16,
12,
16,
13,
11,
7,
12,
2,
5,
2,
3,
0,
1,
1,
0,
0,
0,
0,
0,
0,
1,
0,
0,
0,
0,
0,
0,
0,
0,
0,
0,
0,
0,
0,
0,
1,
0,
0,
0,
0,
0,
0,
0,
0,
0,
0,
0,
0,
0,
0,
0,
0,
0,
0,
0,
0,
0,
0,
0,
0,
0,
0,
0,
0,
0,
0,
0,
0,
0,
0,
0,
0,
0,
0,
0,
0,
0,
0,
0,
0,
0,
0,
0,
0,
0,
0,
0,
0,
0,
0,
0,
0,
0,
0,
0,
0,
0,
0,
0,
0,
0,
0,
0,
0,
0,
0,
0,
0,
0,
0,
0,
0,
0,
0,
0,
0,
0,
0,
0,
0,
0,
0,
0,
0,
0,
0,
0,
0,
0,
0,
0,
0,
0,
0,
0,
0,
0,
0,
0,
0,
0,
0,
0,
0,
0,
0,
0,
0,
0,
0,
0,
0,
0,
0,
0,
0,
0,
0,
0,
0,
0,
0,
0,
#ENDOFDATA   :

File: SPI MM2 Uvarovite[6][4].msa
#FORMAT      : EMSA/MAS Spectral Data File
#VERSION     : 1.0
#TITLE       : SPI MM2 Uvarovite[6][all]
#DATE        : 13-MAR-2025
#TIME        : 14:19
#OWNER       : Unknown
#NPOINTS     : 4096
#NCOLUMNS    : 1
#XUNITS      : eV
#YUNITS      : counts
#DATATYPE    : Y
#XPERCHAN    : 9.99778
#OFFSET      : 1.69135
#BEAMKV      : 20
#SIGNALTYPE  : EDS
#ELEVANGLE   : 35
#AZIMANGLE   : 0
#LIVETIME    : 239.837
#REALTIME    : 255.333
#PROBECUR    : 1.02609
#TAUWIND     : 0
#TDEADLYR    : 0
#TACTLYR     : 0.045
#TALWIND     : 0.025
#CHOFFSET    : 0.0
#XLABEL      : Energy (eV)
#YLABEL      : Counts
#XPOSITION   : 5.724
#YPOSITION   : 6.36206
#ZPOSITION   : 31.03511
#EDSDET      : SD
##SPECIMEN   : SPI MM2 Uvarovite[6][all]
##DET_HASH   : 12273538-fd48-a23f-0a19-f1e6fa85caef
##CALIB_HASH : 6abaa72c-aa41-8738-0be9-f592914732f3
##WORKING    : 15.0 mm
##DET_NAME   : EDAX All
##DET_MODE   : MediumLE
#SPECTRUM    :
21,
222,
13557,
4134,
31928,
2813,
2398,
2935,
3497,
4257,
6022,
13075,
43506,
21709,
4630,
3303,
3612,
3275,
3183,
3110,
3139,
2890,
2948,
2979,
2800,
3307,
64299,
22194,
4806,
11423,
2005,
1825,
4078,
1906,
1705,
2285,
1745,
1686,
8980,
22285,
1536,
1433,
3652,
2856,
1174,
1629,
2536,
1147,
1060,
1046,
1156,
1035,
955,
978,
907,
880,
798,
808,
754,
764,
764,
724,
702,
676,
673,
640,
593,
590,
580,
565,
551,
547,
437,
479,
480,
452,
450,
413,
401,
379,
385,
365,
345,
332,
305,
281,
295,
274,
275,
267,
236,
222,
219,
213,
180,
200,
156,
187,
177,
162,
144,
139,
146,
140,
120,
120,
120,
92,
102,
92,
75,
87,
78,
60,
48,
65,
64,
41,
57,
46,
32,
41,
33,
32,
31,
31,
31,
18,
25,
16,
12,
17,
21,
9,
7,
10,
8,
5,
6,
2,
1,
2,
4,
0,
0,
0,
0,
1,
1,
0,
0,
0,
1,
0,
0,
0,
0,
0,
0,
0,
1,
1,
0,
0,
0,
0,
0,
0,
0,
1,
0,
0,
0,
0,
0,
0,
0,
0,
0,
0,
0,
0,
0,
0,
0,
0,
0,
0,
0,
0,
0,
0,
0,
0,
0,
0,
0,
0,
0,
0,
0,
0,
0,
0,
0,
0,
0,
0,
0,
0,
0,
0,
0,
0,
0,
0,
0,
0,
0,
0,
0,
0,
0,
0,
0,
0,
0,
0,
0,
0,
0,
0,
0,
0,
0,
0,
0,
0,
0,
0,
0,
0,
0,
0,
0,
0,
0,
0,
0,
0,
0,
0,
0,
0,
0,
0,
0,
0,
0,
0,
0,
0,
0,
0,
0,
0,
0,
0,
0,
0,
0,
0,
0,
0,
0,
0,
0,
0,
0,
0,
0,
0,
0,
0,
0,
0,
0,
0,
0,
0,
0,
0,
0,
0,
#ENDOFDATA   :

File: SPI MM2 Uvarovite[7][4].msa
#FORMAT      : EMSA/MAS Spectral Data File
#VERSION     : 1.0
#TITLE       : SPI MM2 Uvarovite[7][all]
#DATE        : 13-MAR-2025
#TIME        : 14:20
#OWNER       : Unknown
#NPOINTS     : 4096
#NCOLUMNS    : 1
#XUNITS      : eV
#YUNITS      : counts
#DATATYPE    : Y
#XPERCHAN    : 9.99778
#OFFSET      : 1.69135
#BEAMKV      : 20
#SIGNALTYPE  : EDS
#ELEVANGLE   : 35
#AZIMANGLE   : 0
#LIVETIME    : 239.901
#REALTIME    : 255.398
#PROBECUR    : 1.02609
#TAUWIND     : 0
#TDEADLYR    : 0
#TACTLYR     : 0.045
#TALWIND     : 0.025
#CHOFFSET    : 0.0
#XLABEL      : Energy (eV)
#YLABEL      : Counts
#XPOSITION   : 5.73154
#YPOSITION   : 6.40336
#ZPOSITION   : 31.03511
#EDSDET      : SD
##SPECIMEN   : SPI MM2 Uvarovite[7][all]
##DET_HASH   : 12273538-fd48-a23f-0a19-f1e6fa85caef
##CALIB_HASH : 6abaa72c-aa41-8738-0be9-f592914732f3
##WORKING    : 15.0 mm
##DET_NAME   : EDAX All
##DET_MODE   : MediumLE
#SPECTRUM    :
23,
188,
13566,
4126,
32062,
2661,
2447,
2991,
3428,
4246,
6082,
13027,
43610,
21700,
4556,
3318,
3641,
3283,
3250,
3090,
3053,
2998,
3005,
2927,
2645,
3389,
64118,
22123,
4922,
11433,
2054,
1888,
4438,
1995,
1720,
2347,
1822,
1703,
8921,
22595,
1577,
1533,
3516,
2929,
1130,
1581,
2473,
1074,
1036,
1050,
1123,
1122,
967,
991,
896,
897,
814,
787,
748,
793,
744,
726,
701,
685,
662,
661,
601,
612,
574,
585,
511,
532,
468,
501,
476,
404,
397,
420,
371,
392,
358,
361,
339,
352,
304,
317,
294,
290,
249,
263,
229,
197,
214,
210,
196,
188,
186,
183,
160,
139,
152,
124,
129,
140,
130,
102,
122,
108,
97,
87,
68,
79,
83,
69,
67,
59,
62,
62,
53,
44,
59,
42,
42,
40,
29,
36,
28,
28,
15,
16,
26,
12,
9,
17,
9,
6,
9,
5,
4,
5,
3,
1,
1,
0,
0,
1,
0,
0,
1,
1,
1,
0,
0,
0,
1,
0,
0,
0,
0,
0,
0,
0,
0,
0,
0,
0,
0,
0,
0,
0,
0,
0,
0,
0,
0,
0,
0,
0,
0,
0,
0,
0,
0,
0,
0,
0,
0,
0,
0,
0,
0,
0,
0,
0,
0,
0,
0,
0,
0,
0,
0,
0,
0,
0,
0,
0,
0,
0,
0,
0,
0,
0,
0,
0,
0,
0,
0,
0,
0,
0,
0,
0,
0,
0,
0,
0,
0,
0,
0,
0,
0,
0,
0,
0,
0,
0,
0,
0,
0,
0,
0,
0,
0,
0,
0,
0,
0,
0,
0,
0,
0,
0,
0,
0,
0,
0,
0,
0,
0,
0,
0,
0,
0,
0,
0,
0,
0,
0,
0,
0,
0,
0,
0,
0,
0,
0,
0,
0,
0,
0,
0,
0,
0,
0,
0,
0,
0,
0,
0,
0,
0,
0,
0,
0,
#ENDOFDATA   :

File: SPI MM2 Willemite[0][4].msa
#FORMAT      : EMSA/MAS Spectral Data File
#VERSION     : 1.0
#TITLE       : SPI MM2 Willemite[0][all]
#DATE        : 13-MAR-2025
#TIME        : 14:02
#OWNER       : Unknown
#NPOINTS     : 4096
#NCOLUMNS    : 1
#XUNITS      : eV
#YUNITS      : counts
#DATATYPE    : Y
#XPERCHAN    : 9.99778
#OFFSET      : 1.69135
#BEAMKV      : 20
#SIGNALTYPE  : EDS
#ELEVANGLE   : 35
#AZIMANGLE   : 0
#LIVETIME    : 239.763
#REALTIME    : 257.389
#PROBECUR    : 1.0264
#TAUWIND     : 0
#TDEADLYR    : 0
#TACTLYR     : 0.045
#TALWIND     : 0.025
#CHOFFSET    : 0.0
#XLABEL      : Energy (eV)
#YLABEL      : Counts
#XPOSITION   : 2.74825
#YPOSITION   : 6.23714
#ZPOSITION   : 31.03511
#EDSDET      : SD
##SPECIMEN   : SPI MM2 Willemite[0][all]
##DET_HASH   : 12273538-fd48-a23f-0a19-f1e6fa85caef
##CALIB_HASH : 6abaa72c-aa41-8738-0be9-f592914732f3
##WORKING    : 15.0 mm
##DET_NAME   : EDAX All
##DET_MODE   : MediumLE
#SPECTRUM    :
39,
264,
11389,
5991,
42399,
4714,
11530,
140929,
5889,
3624,
3275,
4347,
24663,
13089,
3566,
3610,
3763,
3730,
3783,
3749,
3745,
3593,
3388,
3462,
3350,
3335,
3169,
3071,
3017,
2962,
2832,
2714,
2753,
2718,
2482,
2471,
2387,
2348,
2222,
2129,
2050,
2270,
10441,
2615,
1861,
1848,
2773,
1987,
1604,
1764,
1546,
1476,
1508,
1445,
1374,
1319,
1339,
1221,
1146,
1245,
1411,
20078,
33648,
1772,
1094,
1044,
1052,
1187,
5736,
3316,
817,
742,
759,
695,
722,
686,
670,
647,
591,
584,
536,
558,
541,
502,
459,
415,
440,
413,
420,
367,
361,
342,
357,
345,
309,
324,
304,
262,
278,
280,
255,
246,
229,
214,
195,
191,
176,
162,
158,
154,
160,
145,
117,
128,
104,
99,
104,
93,
76,
76,
74,
61,
81,
83,
71,
66,
40,
45,
46,
39,
36,
34,
34,
20,
23,
12,
10,
11,
13,
11,
4,
3,
5,
1,
0,
3,
2,
0,
1,
1,
2,
1,
0,
2,
0,
1,
0,
1,
0,
0,
1,
0,
0,
0,
0,
0,
0,
1,
0,
2,
0,
0,
0,
0,
0,
0,
1,
0,
0,
0,
1,
0,
0,
0,
0,
0,
0,
0,
0,
1,
0,
0,
0,
0,
0,
0,
0,
1,
0,
0,
1,
0,
0,
0,
0,
0,
0,
0,
0,
0,
0,
0,
0,
0,
0,
0,
0,
0,
0,
0,
0,
0,
0,
0,
0,
0,
0,
0,
0,
0,
0,
0,
0,
0,
0,
0,
0,
0,
0,
0,
0,
0,
0,
0,
0,
0,
0,
0,
0,
0,
0,
0,
0,
0,
0,
0,
0,
0,
0,
0,
0,
0,
0,
0,
0,
0,
0,
0,
0,
0,
0,
0,
0,
0,
0,
0,
0,
0,
0,
0,
0,
0,
0,
0,
0,
0,
0,
0,
0,
0,
0,
0,
0,
0,
#ENDOFDATA   :

File: SPI MM2 Willemite[1][4].msa
#FORMAT      : EMSA/MAS Spectral Data File
#VERSION     : 1.0
#TITLE       : SPI MM2 Willemite[1][all]
#DATE        : 13-MAR-2025
#TIME        : 14:04
#OWNER       : Unknown
#NPOINTS     : 4096
#NCOLUMNS    : 1
#XUNITS      : eV
#YUNITS      : counts
#DATATYPE    : Y
#XPERCHAN    : 9.99778
#OFFSET      : 1.69135
#BEAMKV      : 20
#SIGNALTYPE  : EDS
#ELEVANGLE   : 35
#AZIMANGLE   : 0
#LIVETIME    : 240.378
#REALTIME    : 257.447
#PROBECUR    : 1.0264
#TAUWIND     : 0
#TDEADLYR    : 0
#TACTLYR     : 0.045
#TALWIND     : 0.025
#CHOFFSET    : 0.0
#XLABEL      : Energy (eV)
#YLABEL      : Counts
#XPOSITION   : 2.68272
#YPOSITION   : 6.24227
#ZPOSITION   : 31.03511
#EDSDET      : SD
##SPECIMEN   : SPI MM2 Willemite[1][all]
##DET_HASH   : 12273538-fd48-a23f-0a19-f1e6fa85caef
##CALIB_HASH : 6abaa72c-aa41-8738-0be9-f592914732f3
##WORKING    : 15.0 mm
##DET_NAME   : EDAX All
##DET_MODE   : MediumLE
#SPECTRUM    :
27,
260,
13669,
5871,
41101,
4574,
11195,
133976,
5855,
4543,
3217,
4069,
23883,
12851,
3426,
3431,
3703,
3569,
3598,
3681,
3747,
3488,
3404,
3393,
3247,
3208,
3211,
3095,
3018,
2917,
2844,
2730,
2644,
2504,
2463,
2405,
2333,
2270,
2208,
2232,
2101,
2160,
9695,
2496,
1882,
1777,
2602,
1971,
1611,
1674,
1625,
1471,
1374,
1441,
1368,
1313,
1205,
1225,
1197,
1274,
1413,
19658,
32396,
1656,
1088,
1014,
947,
1167,
5408,
3227,
743,
723,
709,
666,
683,
647,
688,
552,
559,
524,
561,
542,
487,
468,
460,
451,
400,
419,
411,
381,
351,
318,
363,
298,
313,
285,
259,
301,
274,
251,
227,
245,
196,
197,
209,
203,
175,
166,
149,
157,
137,
131,
124,
118,
99,
96,
111,
93,
90,
83,
85,
73,
62,
63,
63,
54,
50,
37,
42,
21,
37,
25,
25,
18,
31,
13,
11,
17,
5,
11,
7,
4,
2,
1,
1,
1,
0,
0,
0,
0,
0,
1,
1,
1,
0,
0,
1,
2,
0,
0,
0,
0,
0,
0,
0,
0,
0,
0,
0,
1,
0,
0,
0,
0,
0,
0,
0,
0,
0,
1,
0,
0,
0,
0,
0,
0,
0,
0,
0,
1,
0,
0,
0,
0,
0,
0,
0,
0,
0,
0,
0,
0,
0,
0,
0,
0,
0,
0,
0,
0,
0,
0,
0,
0,
0,
0,
0,
0,
0,
0,
0,
0,
0,
0,
0,
0,
0,
0,
0,
0,
0,
0,
0,
0,
0,
0,
0,
0,
0,
0,
0,
0,
0,
0,
0,
0,
0,
0,
0,
0,
0,
0,
0,
0,
0,
0,
0,
0,
0,
0,
0,
0,
0,
0,
0,
0,
0,
0,
0,
0,
0,
0,
0,
0,
0,
0,
0,
0,
0,
0,
0,
0,
0,
0,
0,
0,
0,
0,
0,
0,
0,
0,
0,
0,
#ENDOFDATA   :

File: SPI MM2 Willemite[2][4].msa
#FORMAT      : EMSA/MAS Spectral Data File
#VERSION     : 1.0
#TITLE       : SPI MM2 Willemite[2][all]
#DATE        : 13-MAR-2025
#TIME        : 14:05
#OWNER       : Unknown
#NPOINTS     : 4096
#NCOLUMNS    : 1
#XUNITS      : eV
#YUNITS      : counts
#DATATYPE    : Y
#XPERCHAN    : 9.99778
#OFFSET      : 1.69135
#BEAMKV      : 20
#SIGNALTYPE  : EDS
#ELEVANGLE   : 35
#AZIMANGLE   : 0
#LIVETIME    : 239.727
#REALTIME    : 257.387
#PROBECUR    : 1.0264
#TAUWIND     : 0
#TDEADLYR    : 0
#TACTLYR     : 0.045
#TALWIND     : 0.025
#CHOFFSET    : 0.0
#XLABEL      : Energy (eV)
#YLABEL      : Counts
#XPOSITION   : 2.75675
#YPOSITION   : 6.2718
#ZPOSITION   : 31.03511
#EDSDET      : SD
##SPECIMEN   : SPI MM2 Willemite[2][all]
##DET_HASH   : 12273538-fd48-a23f-0a19-f1e6fa85caef
##CALIB_HASH : 6abaa72c-aa41-8738-0be9-f592914732f3
##WORKING    : 15.0 mm
##DET_NAME   : EDAX All
##DET_MODE   : MediumLE
#SPECTRUM    :
32,
243,
11315,
6077,
43084,
4759,
11409,
138391,
5794,
3780,
3378,
4378,
24803,
13500,
3578,
3632,
3742,
3792,
3720,
3799,
3791,
3491,
3625,
3545,
3358,
3427,
3199,
3168,
2973,
2933,
2906,
2817,
2651,
2565,
2554,
2496,
2474,
2354,
2253,
2079,
2173,
2287,
11924,
2722,
1864,
1913,
2966,
1969,
1636,
1680,
1673,
1525,
1481,
1532,
1399,
1307,
1284,
1242,
1227,
1283,
1450,
20085,
33623,
1682,
1028,
992,
1046,
1199,
5651,
3263,
793,
776,
722,
657,
706,
672,
671,
606,
591,
582,
604,
487,
515,
509,
516,
468,
422,
409,
401,
403,
407,
378,
317,
352,
311,
315,
271,
293,
248,
280,
244,
230,
216,
234,
197,
204,
193,
175,
176,
140,
119,
136,
115,
118,
111,
103,
108,
93,
77,
67,
83,
70,
68,
86,
64,
62,
52,
51,
48,
32,
42,
32,
27,
20,
19,
18,
16,
15,
12,
12,
9,
1,
1,
3,
0,
0,
0,
0,
0,
2,
0,
0,
1,
0,
0,
0,
1,
0,
0,
1,
0,
1,
0,
1,
0,
0,
1,
0,
0,
1,
0,
1,
1,
0,
0,
0,
0,
0,
0,
1,
0,
0,
0,
0,
0,
0,
0,
0,
0,
0,
0,
0,
0,
0,
1,
0,
0,
0,
0,
0,
0,
0,
0,
0,
0,
0,
0,
0,
0,
0,
0,
0,
0,
0,
0,
0,
0,
0,
0,
0,
0,
0,
0,
0,
0,
0,
0,
0,
0,
0,
0,
0,
0,
0,
0,
0,
0,
0,
0,
0,
0,
0,
0,
0,
0,
0,
0,
0,
0,
0,
0,
0,
0,
0,
0,
0,
0,
0,
0,
0,
0,
0,
0,
0,
0,
0,
0,
0,
0,
0,
0,
0,
0,
0,
0,
0,
0,
0,
0,
0,
0,
0,
0,
0,
0,
0,
0,
0,
0,
0,
0,
0,
0,
0,
#ENDOFDATA   :

File: SPI MM2 Willemite[3][4].msa
#FORMAT      : EMSA/MAS Spectral Data File
#VERSION     : 1.0
#TITLE       : SPI MM2 Willemite[3][all]
#DATE        : 13-MAR-2025
#TIME        : 14:06
#OWNER       : Unknown
#NPOINTS     : 4096
#NCOLUMNS    : 1
#XUNITS      : eV
#YUNITS      : counts
#DATATYPE    : Y
#XPERCHAN    : 9.99778
#OFFSET      : 1.69135
#BEAMKV      : 20
#SIGNALTYPE  : EDS
#ELEVANGLE   : 35
#AZIMANGLE   : 0
#LIVETIME    : 239.633
#REALTIME    : 257.443
#PROBECUR    : 1.0264
#TAUWIND     : 0
#TDEADLYR    : 0
#TACTLYR     : 0.045
#TALWIND     : 0.025
#CHOFFSET    : 0.0
#XLABEL      : Energy (eV)
#YLABEL      : Counts
#XPOSITION   : 2.72799
#YPOSITION   : 6.31068
#ZPOSITION   : 31.03511
#EDSDET      : SD
##SPECIMEN   : SPI MM2 Willemite[3][all]
##DET_HASH   : 12273538-fd48-a23f-0a19-f1e6fa85caef
##CALIB_HASH : 6abaa72c-aa41-8738-0be9-f592914732f3
##WORKING    : 15.0 mm
##DET_NAME   : EDAX All
##DET_MODE   : MediumLE
#SPECTRUM    :
15,
256,
11264,
6138,
42456,
4860,
12054,
145986,
6036,
3716,
3311,
4382,
24538,
13416,
3466,
3619,
3891,
3790,
3735,
3773,
3868,
3550,
3638,
3566,
3393,
3398,
3217,
3107,
3057,
2949,
2798,
2794,
2681,
2546,
2570,
2476,
2460,
2242,
2281,
2127,
2264,
2274,
9000,
2519,
1866,
1928,
2605,
1955,
1697,
1639,
1621,
1553,
1460,
1537,
1413,
1400,
1270,
1273,
1274,
1165,
1494,
20464,
34540,
1774,
1064,
1088,
1013,
1172,
5835,
3372,
796,
768,
703,
693,
730,
668,
629,
638,
645,
585,
521,
566,
512,
464,
500,
515,
479,
439,
385,
417,
382,
366,
377,
349,
322,
287,
294,
265,
251,
268,
219,
219,
218,
226,
214,
197,
183,
153,
156,
165,
148,
125,
138,
111,
111,
103,
101,
93,
90,
91,
78,
71,
79,
70,
80,
57,
41,
39,
40,
36,
54,
37,
30,
24,
18,
24,
15,
12,
10,
8,
5,
5,
5,
0,
1,
1,
1,
4,
2,
0,
0,
1,
0,
0,
1,
0,
1,
0,
0,
0,
0,
0,
0,
0,
0,
0,
1,
0,
0,
0,
0,
0,
0,
0,
0,
0,
1,
0,
0,
0,
0,
0,
0,
0,
0,
0,
0,
0,
0,
0,
1,
0,
0,
0,
1,
0,
0,
0,
0,
0,
0,
0,
0,
0,
0,
0,
0,
0,
0,
0,
0,
0,
0,
0,
0,
0,
0,
0,
0,
0,
0,
0,
0,
0,
0,
0,
0,
0,
0,
0,
0,
0,
0,
0,
0,
0,
0,
0,
0,
0,
0,
0,
0,
0,
0,
0,
0,
0,
0,
0,
0,
0,
0,
0,
0,
0,
0,
0,
0,
0,
0,
0,
0,
0,
0,
0,
0,
0,
0,
0,
0,
0,
0,
0,
0,
0,
0,
0,
0,
0,
0,
0,
0,
0,
0,
0,
0,
0,
0,
0,
0,
0,
0,
0,
#ENDOFDATA   :

File: SPI MM2 Willemite[4][4].msa
#FORMAT      : EMSA/MAS Spectral Data File
#VERSION     : 1.0
#TITLE       : SPI MM2 Willemite[4][all]
#DATE        : 13-MAR-2025
#TIME        : 14:07
#OWNER       : Unknown
#NPOINTS     : 4096
#NCOLUMNS    : 1
#XUNITS      : eV
#YUNITS      : counts
#DATATYPE    : Y
#XPERCHAN    : 9.99778
#OFFSET      : 1.69135
#BEAMKV      : 20
#SIGNALTYPE  : EDS
#ELEVANGLE   : 35
#AZIMANGLE   : 0
#LIVETIME    : 239.802
#REALTIME    : 257.45
#PROBECUR    : 1.02609
#TAUWIND     : 0
#TDEADLYR    : 0
#TACTLYR     : 0.045
#TALWIND     : 0.025
#CHOFFSET    : 0.0
#XLABEL      : Energy (eV)
#YLABEL      : Counts
#XPOSITION   : 2.81352
#YPOSITION   : 6.24404
#ZPOSITION   : 31.03512
#EDSDET      : SD
##SPECIMEN   : SPI MM2 Willemite[4][all]
##DET_HASH   : 12273538-fd48-a23f-0a19-f1e6fa85caef
##CALIB_HASH : 6abaa72c-aa41-8738-0be9-f592914732f3
##WORKING    : 15.0 mm
##DET_NAME   : EDAX All
##DET_MODE   : MediumLE
#SPECTRUM    :
31,
266,
11770,
5954,
41991,
4802,
11634,
143334,
5968,
4810,
3350,
4259,
24408,
13290,
3603,
3578,
3724,
3650,
3609,
3773,
3856,
3552,
3563,
3530,
3371,
3348,
3250,
3091,
3037,
2924,
2838,
2762,
2763,
2621,
2530,
2454,
2405,
2339,
2245,
2150,
2149,
2187,
8801,
2520,
1796,
1889,
2694,
1957,
1632,
1653,
1631,
1458,
1428,
1584,
1398,
1291,
1314,
1277,
1181,
1264,
1448,
20154,
34258,
1752,
1018,
1057,
967,
1261,
5788,
3275,
822,
758,
693,
695,
739,
666,
633,
603,
629,
565,
585,
507,
518,
476,
470,
446,
470,
427,
401,
418,
400,
385,
358,
341,
315,
304,
312,
277,
243,
249,
250,
230,
236,
208,
190,
189,
187,
178,
171,
143,
144,
145,
150,
147,
116,
108,
84,
106,
90,
89,
98,
55,
71,
80,
57,
53,
48,
38,
42,
40,
29,
48,
27,
13,
22,
20,
19,
17,
2,
8,
8,
4,
5,
3,
4,
0,
1,
0,
1,
1,
0,
1,
1,
0,
0,
0,
0,
0,
2,
0,
0,
0,
2,
1,
0,
0,
0,
1,
0,
0,
0,
0,
0,
0,
0,
0,
0,
0,
0,
0,
0,
0,
0,
0,
0,
0,
1,
0,
0,
0,
0,
0,
0,
0,
0,
0,
0,
0,
0,
0,
0,
0,
0,
0,
1,
0,
0,
0,
0,
0,
0,
0,
0,
0,
0,
0,
0,
0,
0,
0,
0,
0,
0,
0,
0,
0,
0,
0,
0,
0,
0,
0,
0,
0,
0,
0,
0,
0,
0,
0,
0,
0,
0,
0,
0,
0,
0,
0,
0,
0,
0,
0,
0,
0,
0,
0,
0,
0,
0,
0,
0,
0,
0,
0,
0,
0,
0,
0,
0,
0,
0,
0,
0,
0,
0,
0,
0,
0,
0,
0,
0,
0,
0,
0,
0,
0,
0,
0,
0,
0,
0,
0,
0,
0,
#ENDOFDATA   :

File: SPI MM2 Willemite[5][4].msa
#FORMAT      : EMSA/MAS Spectral Data File
#VERSION     : 1.0
#TITLE       : SPI MM2 Willemite[5][all]
#DATE        : 13-MAR-2025
#TIME        : 14:08
#OWNER       : Unknown
#NPOINTS     : 4096
#NCOLUMNS    : 1
#XUNITS      : eV
#YUNITS      : counts
#DATATYPE    : Y
#XPERCHAN    : 9.99778
#OFFSET      : 1.69135
#BEAMKV      : 20
#SIGNALTYPE  : EDS
#ELEVANGLE   : 35
#AZIMANGLE   : 0
#LIVETIME    : 239.799
#REALTIME    : 257.449
#PROBECUR    : 1.02609
#TAUWIND     : 0
#TDEADLYR    : 0
#TACTLYR     : 0.045
#TALWIND     : 0.025
#CHOFFSET    : 0.0
#XLABEL      : Energy (eV)
#YLABEL      : Counts
#XPOSITION   : 2.77165
#YPOSITION   : 6.19037
#ZPOSITION   : 31.03511
#EDSDET      : SD
##SPECIMEN   : SPI MM2 Willemite[5][all]
##DET_HASH   : 12273538-fd48-a23f-0a19-f1e6fa85caef
##CALIB_HASH : 6abaa72c-aa41-8738-0be9-f592914732f3
##WORKING    : 15.0 mm
##DET_NAME   : EDAX All
##DET_MODE   : MediumLE
#SPECTRUM    :
37,
243,
11522,
6059,
43125,
4711,
11443,
138035,
6070,
3689,
3339,
4418,
24914,
13287,
3608,
3657,
3718,
3727,
3693,
3779,
3772,
3739,
3704,
3462,
3452,
3339,
3226,
3103,
2999,
2906,
2829,
2777,
2706,
2635,
2597,
2517,
2446,
2251,
2248,
2141,
2142,
2358,
12170,
2696,
1857,
1903,
2885,
1980,
1655,
1691,
1586,
1435,
1453,
1533,
1386,
1257,
1281,
1272,
1206,
1235,
1520,
20033,
33618,
1748,
1067,
1078,
1067,
1197,
5660,
3265,
826,
727,
757,
718,
705,
655,
628,
614,
587,
612,
536,
565,
523,
510,
467,
439,
438,
417,
410,
409,
392,
350,
308,
339,
318,
315,
298,
261,
231,
234,
263,
223,
244,
232,
201,
195,
183,
172,
156,
150,
154,
128,
130,
104,
116,
113,
117,
91,
95,
102,
82,
73,
82,
70,
61,
58,
53,
33,
39,
39,
47,
21,
24,
26,
19,
20,
13,
10,
14,
12,
10,
2,
2,
0,
1,
0,
0,
0,
0,
1,
1,
1,
0,
1,
0,
0,
0,
1,
0,
0,
1,
0,
1,
1,
0,
0,
0,
2,
0,
1,
0,
0,
0,
1,
0,
4,
0,
2,
0,
0,
0,
0,
0,
0,
0,
0,
0,
0,
0,
0,
0,
0,
0,
0,
0,
0,
0,
0,
0,
0,
0,
0,
0,
0,
0,
0,
0,
0,
0,
0,
0,
0,
0,
0,
0,
0,
0,
0,
0,
0,
0,
0,
0,
0,
0,
0,
0,
0,
0,
0,
0,
0,
0,
0,
0,
0,
0,
0,
0,
0,
0,
0,
0,
0,
0,
0,
0,
0,
0,
0,
0,
0,
0,
0,
0,
0,
0,
0,
0,
0,
0,
0,
0,
0,
0,
0,
0,
0,
0,
0,
0,
0,
0,
0,
0,
0,
0,
0,
0,
0,
0,
0,
0,
0,
0,
0,
0,
0,
0,
0,
0,
0,
0,
0,
#ENDOFDATA   :