Folder: spex_quant/N132962/Quantification/20 keV/MMM2 (part 13)

File: SPI MM2 SPI Phlogpite[4][4].msa
#FORMAT      : EMSA/MAS Spectral Data File
#VERSION     : 1.0
#TITLE       : SPI MM2 SPI Phlogpite[4][all]
#DATE        : 13-MAR-2025
#TIME        : 10:45
#OWNER       : Unknown
#NPOINTS     : 4096
#NCOLUMNS    : 1
#XUNITS      : eV
#YUNITS      : counts
#DATATYPE    : Y
#XPERCHAN    : 9.99778
#OFFSET      : 1.69135
#BEAMKV      : 20
#SIGNALTYPE  : EDS
#ELEVANGLE   : 35
#AZIMANGLE   : 0
#LIVETIME    : 239.793
#REALTIME    : 254.625
#PROBECUR    : 1.02606
#TAUWIND     : 0
#TDEADLYR    : 0
#TACTLYR     : 0.045
#TALWIND     : 0.025
#CHOFFSET    : 0.0
#XLABEL      : Energy (eV)
#YLABEL      : Counts
#XPOSITION   : 1.46386
#YPOSITION   : -0.50064
#ZPOSITION   : 31.0351
#EDSDET      : SD
##SPECIMEN   : SPI MM2 SPI Phlogpite[4][all]
##D2STDCMP   : SPI Phlogpite,(H:0.48),(O:46.01),(Mg:17.47),(Al:6.47),(Si:20.19),(K:9.37)
##DET_HASH   : 12273538-fd48-a23f-0a19-f1e6fa85caef
##CALIB_HASH : 6abaa72c-aa41-8738-0be9-f592914732f3
##WORKING    : 15.0 mm
##DET_NAME   : EDAX All
##DET_MODE   : MediumLE
#SPECTRUM    :
24,
190,
10302,
5388,
50730,
7172,
2807,
4064,
4673,
108446,
6367,
19739,
40419,
20129,
2553,
2475,
2746,
2453,
2599,
2400,
2432,
2437,
2343,
6694,
24618,
2910,
4552,
1881,
1751,
1708,
1647,
1639,
2703,
1559,
1586,
1718,
1424,
1364,
1211,
1250,
1213,
1136,
1352,
1133,
1132,
3186,
8161,
1051,
920,
880,
1613,
1161,
772,
782,
737,
696,
700,
637,
618,
598,
619,
582,
569,
585,
536,
511,
491,
441,
463,
449,
412,
416,
420,
377,
390,
335,
366,
362,
321,
296,
279,
264,
287,
258,
226,
225,
204,
197,
182,
189,
209,
181,
186,
152,
161,
159,
154,
121,
140,
124,
144,
89,
90,
85,
104,
108,
93,
93,
83,
74,
57,
70,
48,
70,
41,
51,
40,
39,
28,
25,
31,
27,
29,
31,
18,
20,
22,
14,
19,
13,
14,
10,
10,
10,
5,
6,
1,
5,
5,
1,
3,
1,
2,
0,
0,
0,
0,
0,
0,
0,
0,
0,
0,
0,
0,
0,
0,
0,
0,
0,
0,
0,
0,
0,
0,
0,
0,
0,
0,
1,
0,
0,
0,
0,
0,
0,
0,
0,
0,
0,
0,
0,
1,
0,
0,
0,
0,
0,
0,
0,
0,
0,
0,
0,
0,
0,
0,
0,
0,
0,
0,
0,
0,
0,
0,
0,
0,
0,
0,
0,
0,
0,
0,
0,
0,
0,
0,
0,
0,
0,
0,
0,
0,
0,
0,
0,
0,
0,
0,
0,
0,
0,
0,
0,
0,
0,
0,
0,
0,
0,
0,
0,
0,
0,
0,
0,
0,
0,
0,
0,
0,
0,
0,
0,
0,
0,
0,
0,
0,
0,
0,
0,
0,
0,
0,
0,
0,
0,
0,
0,
0,
0,
0,
0,
0,
0,
0,
0,
0,
0,
0,
0,
0,
0,
0,
0,
0,
0,
0,
0,
0,
0,
0,
0,
#ENDOFDATA   :

File: SPI MM2 SPI Phlogpite[5][4].msa
#FORMAT      : EMSA/MAS Spectral Data File
#VERSION     : 1.0
#TITLE       : SPI MM2 SPI Phlogpite[5][all]
#DATE        : 13-MAR-2025
#TIME        : 10:47
#OWNER       : Unknown
#NPOINTS     : 4096
#NCOLUMNS    : 1
#XUNITS      : eV
#YUNITS      : counts
#DATATYPE    : Y
#XPERCHAN    : 9.99778
#OFFSET      : 1.69135
#BEAMKV      : 20
#SIGNALTYPE  : EDS
#ELEVANGLE   : 35
#AZIMANGLE   : 0
#LIVETIME    : 239.828
#REALTIME    : 254.694
#PROBECUR    : 1.02606
#TAUWIND     : 0
#TDEADLYR    : 0
#TACTLYR     : 0.045
#TALWIND     : 0.025
#CHOFFSET    : 0.0
#XLABEL      : Energy (eV)
#YLABEL      : Counts
#XPOSITION   : 1.45351
#YPOSITION   : -0.53983
#ZPOSITION   : 31.0351
#EDSDET      : SD
##SPECIMEN   : SPI MM2 SPI Phlogpite[5][all]
##D2STDCMP   : SPI Phlogpite,(H:0.48),(O:46.01),(Mg:17.47),(Al:6.47),(Si:20.19),(K:9.37)
##DET_HASH   : 12273538-fd48-a23f-0a19-f1e6fa85caef
##CALIB_HASH : 6abaa72c-aa41-8738-0be9-f592914732f3
##WORKING    : 15.0 mm
##DET_NAME   : EDAX All
##DET_MODE   : MediumLE
#SPECTRUM    :
23,
199,
10471,
5439,
50839,
7301,
2737,
3990,
4620,
108595,
6314,
19620,
40714,
19953,
2461,
2451,
2768,
2444,
2541,
2471,
2337,
2378,
2348,
6624,
24518,
2902,
4519,
1878,
1768,
1700,
1666,
1616,
2672,
1633,
1718,
1724,
1426,
1336,
1315,
1190,
1226,
1139,
1362,
1171,
1024,
3166,
7952,
1023,
917,
927,
1639,
1293,
764,
810,
785,
720,
673,
652,
651,
619,
560,
606,
549,
524,
506,
480,
491,
416,
436,
467,
391,
410,
389,
389,
351,
346,
346,
309,
304,
326,
278,
278,
301,
241,
220,
252,
225,
212,
204,
177,
152,
206,
166,
151,
163,
138,
133,
147,
128,
110,
101,
115,
106,
96,
90,
85,
75,
69,
80,
58,
78,
48,
67,
40,
48,
49,
35,
37,
38,
37,
32,
37,
45,
38,
28,
26,
19,
19,
16,
19,
14,
8,
13,
6,
12,
9,
7,
4,
5,
4,
2,
1,
1,
1,
0,
0,
1,
0,
0,
0,
0,
0,
0,
0,
0,
0,
0,
0,
0,
0,
0,
0,
0,
0,
0,
0,
0,
0,
0,
0,
0,
0,
0,
0,
0,
0,
0,
0,
0,
0,
0,
0,
0,
0,
0,
0,
0,
0,
0,
0,
0,
0,
0,
0,
0,
0,
0,
0,
0,
0,
0,
0,
0,
0,
0,
0,
0,
0,
0,
0,
0,
0,
0,
0,
0,
0,
0,
0,
0,
0,
0,
0,
0,
0,
0,
0,
0,
0,
0,
0,
0,
0,
0,
0,
0,
0,
0,
0,
0,
0,
0,
0,
0,
0,
0,
0,
0,
0,
0,
0,
0,
0,
0,
0,
0,
0,
0,
0,
0,
0,
0,
0,
0,
0,
0,
0,
0,
0,
0,
0,
0,
0,
0,
0,
0,
0,
0,
0,
0,
0,
0,
0,
0,
0,
0,
0,
0,
0,
0,
0,
0,
0,
0,
0,
#ENDOFDATA   :

File: SPI MM2 SPI Phlogpite[6][4].msa
#FORMAT      : EMSA/MAS Spectral Data File
#VERSION     : 1.0
#TITLE       : SPI MM2 SPI Phlogpite[6][all]
#DATE        : 13-MAR-2025
#TIME        : 10:48
#OWNER       : Unknown
#NPOINTS     : 4096
#NCOLUMNS    : 1
#XUNITS      : eV
#YUNITS      : counts
#DATATYPE    : Y
#XPERCHAN    : 9.99778
#OFFSET      : 1.69135
#BEAMKV      : 20
#SIGNALTYPE  : EDS
#ELEVANGLE   : 35
#AZIMANGLE   : 0
#LIVETIME    : 239.787
#REALTIME    : 254.641
#PROBECUR    : 1.02606
#TAUWIND     : 0
#TDEADLYR    : 0
#TACTLYR     : 0.045
#TALWIND     : 0.025
#CHOFFSET    : 0.0
#XLABEL      : Energy (eV)
#YLABEL      : Counts
#XPOSITION   : 1.44959
#YPOSITION   : -0.58126
#ZPOSITION   : 31.0351
#EDSDET      : SD
##SPECIMEN   : SPI MM2 SPI Phlogpite[6][all]
##D2STDCMP   : SPI Phlogpite,(H:0.48),(O:46.01),(Mg:17.47),(Al:6.47),(Si:20.19),(K:9.37)
##DET_HASH   : 12273538-fd48-a23f-0a19-f1e6fa85caef
##CALIB_HASH : 6abaa72c-aa41-8738-0be9-f592914732f3
##WORKING    : 15.0 mm
##DET_NAME   : EDAX All
##DET_MODE   : MediumLE
#SPECTRUM    :
20,
177,
10113,
5403,
50937,
7368,
2746,
4092,
4711,
108953,
6323,
19480,
40495,
19733,
2458,
2542,
2709,
2445,
2530,
2424,
2407,
2506,
2291,
6586,
24533,
2922,
4368,
1838,
1765,
1696,
1580,
1633,
2656,
1597,
1569,
1661,
1449,
1380,
1294,
1294,
1216,
1132,
1331,
1115,
1036,
3104,
8035,
1031,
959,
925,
1667,
1253,
799,
841,
777,
704,
698,
656,
660,
617,
594,
591,
507,
562,
528,
542,
453,
439,
462,
441,
432,
414,
421,
320,
348,
370,
327,
307,
298,
284,
278,
292,
250,
265,
232,
231,
231,
204,
234,
206,
186,
181,
201,
167,
141,
161,
133,
157,
126,
112,
110,
114,
101,
89,
93,
72,
80,
79,
70,
72,
52,
53,
73,
62,
43,
53,
41,
34,
34,
38,
38,
31,
24,
27,
22,
23,
22,
21,
19,
17,
22,
15,
9,
10,
9,
6,
6,
4,
5,
4,
1,
0,
1,
2,
0,
0,
0,
0,
0,
0,
0,
0,
0,
0,
0,
0,
0,
0,
0,
0,
0,
0,
0,
0,
0,
0,
0,
0,
0,
0,
0,
0,
0,
0,
0,
0,
0,
0,
0,
0,
0,
0,
0,
0,
0,
0,
0,
0,
0,
0,
0,
0,
0,
0,
0,
0,
0,
0,
0,
0,
0,
0,
0,
0,
0,
0,
0,
0,
0,
0,
0,
0,
0,
0,
0,
0,
0,
0,
0,
0,
0,
0,
0,
0,
0,
0,
0,
0,
0,
0,
0,
0,
0,
0,
0,
0,
0,
0,
0,
0,
0,
0,
0,
0,
0,
0,
0,
0,
0,
0,
0,
0,
0,
0,
0,
0,
0,
0,
0,
0,
0,
0,
0,
0,
0,
0,
0,
0,
0,
0,
0,
0,
0,
0,
0,
0,
0,
0,
0,
0,
0,
0,
0,
0,
0,
0,
0,
0,
0,
0,
0,
0,
0,
0,
#ENDOFDATA   :

File: SPI MM2 SPI Phlogpite[7][4].msa
#FORMAT      : EMSA/MAS Spectral Data File
#VERSION     : 1.0
#TITLE       : SPI MM2 SPI Phlogpite[7][all]
#DATE        : 13-MAR-2025
#TIME        : 10:49
#OWNER       : Unknown
#NPOINTS     : 4096
#NCOLUMNS    : 1
#XUNITS      : eV
#YUNITS      : counts
#DATATYPE    : Y
#XPERCHAN    : 9.99778
#OFFSET      : 1.69135
#BEAMKV      : 20
#SIGNALTYPE  : EDS
#ELEVANGLE   : 35
#AZIMANGLE   : 0
#LIVETIME    : 239.782
#REALTIME    : 254.636
#PROBECUR    : 1.02606
#TAUWIND     : 0
#TDEADLYR    : 0
#TACTLYR     : 0.045
#TALWIND     : 0.025
#CHOFFSET    : 0.0
#XLABEL      : Energy (eV)
#YLABEL      : Counts
#XPOSITION   : 1.43475
#YPOSITION   : -0.62128
#ZPOSITION   : 31.0351
#EDSDET      : SD
##SPECIMEN   : SPI MM2 SPI Phlogpite[7][all]
##D2STDCMP   : SPI Phlogpite,(H:0.48),(O:46.01),(Mg:17.47),(Al:6.47),(Si:20.19),(K:9.37)
##DET_HASH   : 12273538-fd48-a23f-0a19-f1e6fa85caef
##CALIB_HASH : 6abaa72c-aa41-8738-0be9-f592914732f3
##WORKING    : 15.0 mm
##DET_NAME   : EDAX All
##DET_MODE   : MediumLE
#SPECTRUM    :
31,
175,
10187,
5386,
50954,
7256,
2672,
3965,
4525,
108548,
6275,
19490,
40196,
19876,
2434,
2488,
2669,
2404,
2556,
2452,
2459,
2435,
2278,
6646,
24615,
2941,
4645,
1816,
1672,
1743,
1593,
1619,
2731,
1517,
1562,
1672,
1463,
1444,
1211,
1282,
1178,
1136,
1297,
1027,
1015,
3194,
7911,
959,
888,
929,
1701,
1248,
803,
816,
745,
684,
652,
641,
622,
574,
564,
552,
580,
534,
517,
513,
497,
479,
446,
453,
420,
409,
396,
379,
367,
358,
325,
360,
327,
314,
287,
267,
285,
240,
236,
232,
229,
201,
218,
178,
181,
158,
147,
156,
157,
142,
151,
135,
159,
118,
106,
109,
123,
95,
111,
80,
72,
90,
78,
64,
71,
60,
56,
56,
51,
41,
43,
46,
38,
38,
30,
30,
27,
37,
22,
20,
15,
24,
11,
17,
16,
10,
8,
12,
13,
6,
8,
7,
3,
4,
3,
0,
1,
0,
0,
0,
0,
0,
0,
0,
0,
0,
0,
0,
0,
0,
0,
0,
0,
0,
0,
0,
0,
0,
0,
0,
0,
0,
0,
0,
0,
0,
0,
0,
0,
0,
0,
0,
0,
0,
0,
0,
0,
0,
0,
0,
0,
0,
0,
0,
0,
0,
0,
0,
0,
0,
0,
0,
0,
0,
0,
0,
0,
0,
0,
0,
0,
0,
0,
0,
0,
0,
0,
0,
0,
0,
0,
0,
0,
0,
0,
0,
0,
0,
0,
0,
0,
0,
0,
0,
0,
0,
0,
0,
0,
0,
0,
0,
0,
0,
0,
0,
0,
0,
0,
0,
0,
0,
0,
0,
0,
0,
0,
0,
0,
0,
0,
0,
0,
0,
0,
0,
0,
0,
0,
0,
0,
0,
0,
0,
0,
0,
0,
0,
0,
0,
0,
0,
0,
0,
0,
0,
0,
0,
0,
0,
0,
0,
0,
0,
0,
0,
0,
0,
#ENDOFDATA   :

File: SPI MM2 SPI Plagioclase[0][4].msa
#FORMAT      : EMSA/MAS Spectral Data File
#VERSION     : 1.0
#TITLE       : SPI MM2 SPI Plagioclase[0][all]
#DATE        : 13-MAR-2025
#TIME        : 10:50
#OWNER       : Unknown
#NPOINTS     : 4096
#NCOLUMNS    : 1
#XUNITS      : eV
#YUNITS      : counts
#DATATYPE    : Y
#XPERCHAN    : 9.99778
#OFFSET      : 1.69135
#BEAMKV      : 20
#SIGNALTYPE  : EDS
#ELEVANGLE   : 35
#AZIMANGLE   : 0
#LIVETIME    : 239.832
#REALTIME    : 255.4026
#PROBECUR    : 1.02609
#TAUWIND     : 0
#TDEADLYR    : 0
#TACTLYR     : 0.045
#TALWIND     : 0.025
#CHOFFSET    : 0.0
#XLABEL      : Energy (eV)
#YLABEL      : Counts
#XPOSITION   : -1.32587
#YPOSITION   : -0.24655
#ZPOSITION   : 31.03511
#EDSDET      : SD
##SPECIMEN   : SPI MM2 SPI Plagioclase[0][all]
##D2STDCMP   : SPI Plagioclase,(O:46.79),(Na:3.24),(Al:15.54),(Si:24.83),(K:0.2),(Ca:8.53),(Fe:0.27)
##DET_HASH   : 12273538-fd48-a23f-0a19-f1e6fa85caef
##CALIB_HASH : 6abaa72c-aa41-8738-0be9-f592914732f3
##WORKING    : 15.0 mm
##DET_NAME   : EDAX All
##DET_MODE   : MediumLE
#SPECTRUM    :
33,
171,
9489,
4988,
48191,
2363,
2693,
7013,
4413,
4582,
12799,
48164,
55044,
26433,
2910,
2364,
2734,
2383,
2413,
2407,
2293,
2281,
2184,
2711,
3048,
2388,
22574,
8411,
2593,
4880,
1713,
1518,
1617,
1486,
1369,
1378,
1304,
1289,
1268,
1309,
1156,
1069,
1114,
1003,
995,
1120,
1391,
874,
847,
863,
854,
831,
764,
751,
702,
675,
680,
641,
633,
582,
562,
570,
562,
501,
508,
514,
503,
407,
444,
429,
429,
414,
404,
353,
360,
300,
317,
322,
301,
287,
265,
283,
275,
259,
246,
210,
191,
195,
219,
213,
186,
167,
170,
157,
143,
149,
144,
122,
128,
99,
119,
101,
110,
109,
98,
77,
93,
76,
82,
67,
73,
66,
60,
42,
58,
41,
45,
35,
37,
38,
44,
27,
32,
20,
25,
18,
10,
14,
19,
13,
18,
10,
8,
5,
7,
9,
5,
5,
3,
0,
7,
2,
4,
0,
1,
0,
0,
1,
0,
0,
0,
0,
0,
0,
0,
0,
0,
0,
0,
1,
0,
0,
0,
0,
0,
0,
0,
0,
0,
0,
0,
0,
0,
0,
0,
0,
0,
0,
0,
0,
0,
0,
0,
0,
0,
0,
0,
0,
0,
0,
0,
0,
0,
0,
0,
0,
0,
0,
0,
0,
0,
0,
0,
0,
0,
1,
0,
0,
0,
0,
0,
0,
0,
0,
0,
0,
0,
0,
0,
0,
0,
0,
0,
0,
0,
0,
0,
0,
0,
0,
0,
0,
0,
0,
0,
0,
0,
0,
0,
0,
0,
0,
0,
0,
0,
0,
0,
0,
0,
0,
0,
0,
0,
0,
0,
0,
0,
0,
0,
0,
0,
0,
0,
0,
0,
0,
0,
0,
0,
0,
0,
0,
0,
0,
0,
0,
0,
0,
0,
0,
0,
0,
0,
0,
0,
0,
0,
0,
0,
0,
0,
0,
0,
0,
#ENDOFDATA   :

File: SPI MM2 SPI Plagioclase[1][4].msa
#FORMAT      : EMSA/MAS Spectral Data File
#VERSION     : 1.0
#TITLE       : SPI MM2 SPI Plagioclase[1][all]
#DATE        : 13-MAR-2025
#TIME        : 10:51
#OWNER       : Unknown
#NPOINTS     : 4096
#NCOLUMNS    : 1
#XUNITS      : eV
#YUNITS      : counts
#DATATYPE    : Y
#XPERCHAN    : 9.99778
#OFFSET      : 1.69135
#BEAMKV      : 20
#SIGNALTYPE  : EDS
#ELEVANGLE   : 35
#AZIMANGLE   : 0
#LIVETIME    : 239.851
#REALTIME    : 255.422
#PROBECUR    : 1.02609
#TAUWIND     : 0
#TDEADLYR    : 0
#TACTLYR     : 0.045
#TALWIND     : 0.025
#CHOFFSET    : 0.0
#XLABEL      : Energy (eV)
#YLABEL      : Counts
#XPOSITION   : -1.25375
#YPOSITION   : -0.21896
#ZPOSITION   : 31.0351
#EDSDET      : SD
##SPECIMEN   : SPI MM2 SPI Plagioclase[1][all]
##D2STDCMP   : SPI Plagioclase,(O:46.79),(Na:3.24),(Al:15.54),(Si:24.83),(K:0.2),(Ca:8.53),(Fe:0.27)
##DET_HASH   : 12273538-fd48-a23f-0a19-f1e6fa85caef
##CALIB_HASH : 6abaa72c-aa41-8738-0be9-f592914732f3
##WORKING    : 15.0 mm
##DET_NAME   : EDAX All
##DET_MODE   : MediumLE
#SPECTRUM    :
26,
172,
9353,
4847,
48042,
2300,
2705,
6867,
4396,
4691,
12675,
48381,
55419,
26508,
2860,
2284,
2855,
2358,
2364,
2384,
2358,
2280,
2167,
2660,
3011,
2476,
22490,
8264,
2697,
4663,
1636,
1498,
1692,
1396,
1372,
1312,
1339,
1343,
1243,
1240,
1198,
1107,
1084,
1033,
979,
1079,
1381,
914,
882,
826,
850,
792,
701,
784,
650,
656,
665,
654,
621,
631,
564,
577,
566,
515,
505,
495,
463,
478,
453,
461,
397,
408,
431,
355,
359,
350,
353,
322,
302,
269,
280,
294,
244,
267,
246,
223,
217,
216,
201,
197,
194,
183,
146,
179,
154,
157,
137,
121,
146,
129,
140,
108,
77,
84,
91,
78,
90,
85,
69,
61,
62,
62,
60,
63,
40,
43,
50,
29,
31,
28,
44,
23,
32,
19,
21,
29,
13,
20,
14,
13,
14,
10,
9,
8,
10,
4,
9,
5,
4,
3,
1,
2,
0,
0,
0,
0,
0,
0,
1,
0,
0,
0,
0,
0,
1,
0,
0,
0,
0,
0,
0,
0,
0,
0,
0,
0,
0,
0,
0,
0,
0,
0,
0,
0,
0,
0,
0,
0,
0,
0,
0,
0,
0,
0,
0,
0,
0,
0,
0,
0,
0,
0,
0,
0,
0,
0,
0,
0,
0,
0,
0,
0,
0,
0,
0,
0,
0,
0,
0,
0,
0,
0,
0,
0,
0,
0,
0,
0,
0,
0,
0,
0,
0,
0,
0,
0,
0,
0,
0,
0,
0,
0,
0,
0,
0,
0,
0,
0,
0,
0,
0,
0,
0,
0,
0,
0,
0,
0,
0,
0,
0,
0,
0,
0,
0,
0,
0,
0,
0,
0,
0,
0,
0,
0,
0,
0,
0,
0,
0,
0,
0,
0,
0,
0,
0,
0,
0,
0,
0,
0,
0,
0,
0,
0,
0,
0,
0,
0,
0,
0,
0,
0,
0,
0,
#ENDOFDATA   :

File: SPI MM2 SPI Plagioclase[2][4].msa
#FORMAT      : EMSA/MAS Spectral Data File
#VERSION     : 1.0
#TITLE       : SPI MM2 SPI Plagioclase[2][all]
#DATE        : 13-MAR-2025
#TIME        : 10:52
#OWNER       : Unknown
#NPOINTS     : 4096
#NCOLUMNS    : 1
#XUNITS      : eV
#YUNITS      : counts
#DATATYPE    : Y
#XPERCHAN    : 9.99778
#OFFSET      : 1.69135
#BEAMKV      : 20
#SIGNALTYPE  : EDS
#ELEVANGLE   : 35
#AZIMANGLE   : 0
#LIVETIME    : 239.892
#REALTIME    : 255.469
#PROBECUR    : 1.02609
#TAUWIND     : 0
#TDEADLYR    : 0
#TACTLYR     : 0.045
#TALWIND     : 0.025
#CHOFFSET    : 0.0
#XLABEL      : Energy (eV)
#YLABEL      : Counts
#XPOSITION   : -1.30706
#YPOSITION   : -0.17278
#ZPOSITION   : 31.0351
#EDSDET      : SD
##SPECIMEN   : SPI MM2 SPI Plagioclase[2][all]
##D2STDCMP   : SPI Plagioclase,(O:46.79),(Na:3.24),(Al:15.54),(Si:24.83),(K:0.2),(Ca:8.53),(Fe:0.27)
##DET_HASH   : 12273538-fd48-a23f-0a19-f1e6fa85caef
##CALIB_HASH : 6abaa72c-aa41-8738-0be9-f592914732f3
##WORKING    : 15.0 mm
##DET_NAME   : EDAX All
##DET_MODE   : MediumLE
#SPECTRUM    :
24,
162,
9574,
4774,
47618,
2221,
2798,
6947,
4424,
4742,
12643,
48909,
55228,
26933,
2908,
2389,
2706,
2391,
2391,
2381,
2361,
2386,
2260,
2740,
3041,
2442,
22243,
8527,
2672,
4848,
1632,
1505,
1631,
1424,
1363,
1324,
1317,
1336,
1265,
1229,
1169,
1083,
1036,
1022,
994,
1064,
1419,
891,
872,
826,
861,
893,
711,
727,
734,
689,
693,
640,
613,
631,
572,
554,
537,
526,
490,
487,
486,
443,
440,
429,
414,
397,
405,
395,
345,
338,
339,
331,
306,
306,
281,
299,
242,
246,
255,
223,
212,
220,
219,
198,
208,
203,
176,
158,
168,
149,
150,
142,
126,
110,
137,
108,
112,
98,
108,
68,
86,
55,
79,
62,
61,
55,
67,
51,
56,
54,
38,
50,
35,
39,
46,
37,
20,
20,
15,
15,
23,
23,
14,
14,
15,
15,
19,
14,
7,
12,
7,
8,
4,
3,
7,
0,
0,
0,
0,
0,
1,
0,
0,
0,
0,
0,
0,
0,
0,
0,
0,
0,
0,
0,
0,
0,
0,
0,
0,
0,
0,
0,
0,
0,
0,
0,
0,
0,
0,
0,
0,
0,
0,
0,
0,
0,
0,
0,
0,
0,
0,
0,
0,
0,
0,
0,
0,
0,
0,
0,
0,
0,
0,
0,
0,
0,
0,
0,
0,
0,
0,
0,
0,
0,
0,
0,
0,
0,
0,
0,
0,
0,
0,
0,
0,
0,
0,
0,
0,
0,
0,
0,
0,
0,
0,
0,
0,
0,
0,
0,
0,
0,
0,
0,
0,
0,
0,
0,
0,
0,
0,
0,
0,
0,
0,
0,
0,
0,
0,
0,
0,
0,
0,
0,
0,
0,
0,
0,
0,
0,
0,
0,
0,
0,
0,
0,
0,
0,
0,
0,
0,
0,
0,
0,
0,
0,
0,
0,
0,
0,
0,
0,
0,
0,
0,
0,
0,
0,
#ENDOFDATA   :

File: SPI MM2 SPI Plagioclase[3][4].msa
#FORMAT      : EMSA/MAS Spectral Data File
#VERSION     : 1.0
#TITLE       : SPI MM2 SPI Plagioclase[3][all]
#DATE        : 13-MAR-2025
#TIME        : 10:54
#OWNER       : Unknown
#NPOINTS     : 4096
#NCOLUMNS    : 1
#XUNITS      : eV
#YUNITS      : counts
#DATATYPE    : Y
#XPERCHAN    : 9.99778
#OFFSET      : 1.69135
#BEAMKV      : 20
#SIGNALTYPE  : EDS
#ELEVANGLE   : 35
#AZIMANGLE   : 0
#LIVETIME    : 239.831
#REALTIME    : 255.402
#PROBECUR    : 1.02609
#TAUWIND     : 0
#TDEADLYR    : 0
#TACTLYR     : 0.045
#TALWIND     : 0.025
#CHOFFSET    : 0.0
#XLABEL      : Energy (eV)
#YLABEL      : Counts
#XPOSITION   : -1.35063
#YPOSITION   : -0.23626
#ZPOSITION   : 31.0351
#EDSDET      : SD
##SPECIMEN   : SPI MM2 SPI Plagioclase[3][all]
##D2STDCMP   : SPI Plagioclase,(O:46.79),(Na:3.24),(Al:15.54),(Si:24.83),(K:0.2),(Ca:8.53),(Fe:0.27)
##DET_HASH   : 12273538-fd48-a23f-0a19-f1e6fa85caef
##CALIB_HASH : 6abaa72c-aa41-8738-0be9-f592914732f3
##WORKING    : 15.0 mm
##DET_NAME   : EDAX All
##DET_MODE   : MediumLE
#SPECTRUM    :
31,
179,
9450,
4869,
48156,
2231,
2636,
6997,
4514,
4632,
12706,
48570,
55510,
26639,
2922,
2296,
2747,
2348,
2295,
2280,
2282,
2247,
2159,
2619,
2974,
2422,
22459,
8293,
2599,
4840,
1650,
1523,
1729,
1483,
1365,
1353,
1358,
1354,
1289,
1272,
1214,
1074,
1137,
1031,
965,
1099,
1351,
902,
815,
805,
904,
789,
761,
767,
736,
686,
664,
653,
604,
621,
596,
565,
534,
481,
517,
523,
504,
453,
451,
429,
432,
410,
414,
352,
372,
352,
341,
306,
342,
290,
280,
282,
243,
246,
254,
240,
236,
199,
228,
211,
174,
170,
183,
163,
146,
139,
118,
133,
135,
123,
115,
112,
107,
88,
96,
92,
76,
68,
68,
60,
52,
59,
49,
54,
58,
48,
49,
36,
40,
35,
27,
35,
34,
29,
17,
17,
23,
11,
15,
13,
15,
15,
9,
12,
5,
8,
7,
6,
5,
2,
4,
1,
1,
0,
0,
0,
0,
0,
0,
2,
0,
0,
0,
0,
0,
0,
0,
0,
0,
0,
0,
0,
0,
0,
0,
0,
0,
0,
0,
0,
0,
0,
0,
0,
0,
0,
0,
0,
0,
0,
0,
0,
0,
0,
0,
0,
0,
0,
0,
0,
0,
0,
0,
0,
0,
0,
0,
0,
0,
0,
0,
0,
0,
0,
0,
0,
0,
0,
0,
0,
0,
0,
0,
0,
0,
0,
0,
0,
0,
0,
0,
0,
0,
0,
0,
0,
0,
0,
0,
0,
0,
0,
0,
0,
0,
0,
0,
0,
0,
0,
0,
0,
0,
0,
0,
0,
0,
0,
0,
0,
0,
0,
0,
0,
0,
0,
0,
0,
0,
0,
0,
0,
0,
0,
0,
0,
0,
0,
0,
0,
0,
0,
0,
0,
0,
0,
0,
0,
0,
0,
0,
0,
0,
0,
0,
0,
0,
0,
0,
0,
0,
0,
0,
0,
#ENDOFDATA   :

File: SPI MM2 SPI Plagioclase[4][4].msa
#FORMAT      : EMSA/MAS Spectral Data File
#VERSION     : 1.0
#TITLE       : SPI MM2 SPI Plagioclase[4][all]
#DATE        : 13-MAR-2025
#TIME        : 10:55
#OWNER       : Unknown
#NPOINTS     : 4096
#NCOLUMNS    : 1
#XUNITS      : eV
#YUNITS      : counts
#DATATYPE    : Y
#XPERCHAN    : 9.99778
#OFFSET      : 1.69135
#BEAMKV      : 20
#SIGNALTYPE  : EDS
#ELEVANGLE   : 35
#AZIMANGLE   : 0
#LIVETIME    : 239.89
#REALTIME    : 255.458
#PROBECUR    : 1.02609
#TAUWIND     : 0
#TDEADLYR    : 0
#TACTLYR     : 0.045
#TALWIND     : 0.025
#CHOFFSET    : 0.0
#XLABEL      : Energy (eV)
#YLABEL      : Counts
#XPOSITION   : -1.33428
#YPOSITION   : -0.28306
#ZPOSITION   : 31.0351
#EDSDET      : SD
##SPECIMEN   : SPI MM2 SPI Plagioclase[4][all]
##D2STDCMP   : SPI Plagioclase,(O:46.79),(Na:3.24),(Al:15.54),(Si:24.83),(K:0.2),(Ca:8.53),(Fe:0.27)
##DET_HASH   : 12273538-fd48-a23f-0a19-f1e6fa85caef
##CALIB_HASH : 6abaa72c-aa41-8738-0be9-f592914732f3
##WORKING    : 15.0 mm
##DET_NAME   : EDAX All
##DET_MODE   : MediumLE
#SPECTRUM    :
20,
181,
10124,
4906,
48309,
2271,
2614,
7055,
4496,
4707,
12561,
48791,
55351,
26655,
2872,
2316,
2795,
2328,
2330,
2345,
2312,
2437,
2191,
2548,
3038,
2500,
22391,
8319,
2671,
4810,
1629,
1573,
1548,
1447,
1456,
1401,
1303,
1311,
1271,
1363,
1114,
1167,
1038,
1055,
994,
1117,
1367,
963,
894,
847,
899,
807,
726,
758,
710,
663,
675,
655,
668,
618,
591,
566,
536,
537,
564,
520,
484,
470,
439,
393,
402,
355,
356,
363,
386,
339,
308,
334,
312,
293,
310,
256,
269,
257,
249,
224,
226,
217,
193,
201,
186,
199,
156,
160,
156,
169,
125,
128,
125,
119,
117,
109,
96,
102,
87,
77,
72,
82,
94,
74,
66,
71,
56,
60,
47,
30,
40,
53,
37,
32,
37,
43,
33,
21,
19,
16,
20,
15,
7,
13,
19,
16,
11,
14,
17,
5,
7,
3,
3,
3,
0,
2,
0,
1,
0,
1,
1,
0,
0,
1,
0,
1,
0,
0,
0,
0,
0,
0,
0,
1,
0,
0,
0,
0,
0,
0,
0,
0,
0,
0,
0,
0,
0,
0,
0,
0,
0,
0,
0,
0,
0,
0,
0,
0,
0,
0,
0,
0,
0,
0,
0,
0,
0,
0,
0,
0,
0,
0,
0,
0,
0,
0,
0,
0,
0,
0,
0,
0,
0,
0,
0,
0,
0,
0,
0,
0,
0,
0,
0,
0,
0,
0,
0,
0,
0,
0,
0,
0,
0,
0,
0,
0,
0,
0,
0,
0,
0,
0,
0,
0,
0,
0,
0,
0,
0,
0,
0,
0,
0,
0,
0,
0,
0,
0,
0,
0,
0,
0,
0,
0,
0,
0,
0,
0,
0,
0,
0,
0,
0,
0,
0,
0,
0,
0,
0,
0,
0,
0,
0,
0,
0,
0,
0,
0,
0,
0,
0,
0,
0,
0,
0,
0,
0,
0,
#ENDOFDATA   :

File: SPI MM2 SPI Plagioclase[5][4].msa
#FORMAT      : EMSA/MAS Spectral Data File
#VERSION     : 1.0
#TITLE       : SPI MM2 SPI Plagioclase[5][all]
#DATE        : 13-MAR-2025
#TIME        : 10:56
#OWNER       : Unknown
#NPOINTS     : 4096
#NCOLUMNS    : 1
#XUNITS      : eV
#YUNITS      : counts
#DATATYPE    : Y
#XPERCHAN    : 9.99778
#OFFSET      : 1.69135
#BEAMKV      : 20
#SIGNALTYPE  : EDS
#ELEVANGLE   : 35
#AZIMANGLE   : 0
#LIVETIME    : 239.829
#REALTIME    : 255.4107
#PROBECUR    : 1.02609
#TAUWIND     : 0
#TDEADLYR    : 0
#TACTLYR     : 0.045
#TALWIND     : 0.025
#CHOFFSET    : 0.0
#XLABEL      : Energy (eV)
#YLABEL      : Counts
#XPOSITION   : -1.33313
#YPOSITION   : -0.16274
#ZPOSITION   : 31.0351
#EDSDET      : SD
##SPECIMEN   : SPI MM2 SPI Plagioclase[5][all]
##D2STDCMP   : SPI Plagioclase,(O:46.79),(Na:3.24),(Al:15.54),(Si:24.83),(K:0.2),(Ca:8.53),(Fe:0.27)
##DET_HASH   : 12273538-fd48-a23f-0a19-f1e6fa85caef
##CALIB_HASH : 6abaa72c-aa41-8738-0be9-f592914732f3
##WORKING    : 15.0 mm
##DET_NAME   : EDAX All
##DET_MODE   : MediumLE
#SPECTRUM    :
24,
156,
9317,
4967,
48166,
2222,
2699,
6833,
4347,
4735,
12650,
48759,
55650,
27012,
2997,
2463,
2673,
2360,
2438,
2264,
2351,
2335,
2268,
2638,
2982,
2485,
22500,
8404,
2695,
4699,
1646,
1597,
1672,
1476,
1435,
1359,
1285,
1276,
1235,
1287,
1153,
1185,
1062,
1020,
1047,
1112,
1388,
915,
880,
809,
836,
849,
749,
765,
721,
707,
646,
643,
637,
589,
557,
541,
529,
517,
506,
484,
487,
476,
438,
440,
431,
353,
373,
360,
368,
349,
363,
305,
306,
284,
272,
269,
249,
243,
251,
229,
225,
225,
200,
182,
176,
175,
141,
170,
131,
147,
127,
114,
135,
130,
127,
123,
95,
86,
82,
68,
81,
87,
66,
69,
68,
61,
68,
54,
46,
42,
37,
35,
56,
37,
43,
36,
32,
25,
19,
22,
26,
15,
22,
23,
13,
10,
10,
9,
5,
11,
5,
4,
3,
4,
0,
1,
0,
0,
0,
0,
1,
0,
0,
0,
0,
0,
0,
0,
0,
0,
0,
0,
0,
0,
0,
0,
0,
0,
0,
1,
0,
0,
0,
0,
0,
0,
0,
0,
0,
0,
0,
0,
0,
0,
0,
0,
0,
0,
0,
0,
0,
0,
0,
0,
0,
0,
0,
0,
0,
0,
0,
0,
0,
0,
0,
0,
0,
0,
0,
0,
0,
0,
0,
0,
0,
0,
0,
0,
0,
0,
0,
0,
0,
0,
0,
0,
0,
0,
0,
0,
0,
0,
0,
0,
0,
0,
0,
0,
0,
0,
0,
0,
0,
0,
0,
0,
0,
0,
0,
0,
0,
0,
0,
0,
0,
0,
0,
0,
0,
0,
0,
0,
0,
0,
0,
0,
0,
0,
0,
0,
0,
0,
0,
0,
0,
0,
0,
0,
0,
0,
0,
0,
0,
0,
0,
0,
0,
0,
0,
0,
0,
0,
0,
0,
0,
0,
0,
0,
#ENDOFDATA   :

File: SPI MM2 SPI Plagioclase[7][4].msa
#FORMAT      : EMSA/MAS Spectral Data File
#VERSION     : 1.0
#TITLE       : SPI MM2 SPI Plagioclase[7][all]
#DATE        : 13-MAR-2025
#TIME        : 10:58
#OWNER       : Unknown
#NPOINTS     : 4096
#NCOLUMNS    : 1
#XUNITS      : eV
#YUNITS      : counts
#DATATYPE    : Y
#XPERCHAN    : 9.99778
#OFFSET      : 1.69135
#BEAMKV      : 20
#SIGNALTYPE  : EDS
#ELEVANGLE   : 35
#AZIMANGLE   : 0
#LIVETIME    : 239.841
#REALTIME    : 255.41
#PROBECUR    : 1.02609
#TAUWIND     : 0
#TDEADLYR    : 0
#TACTLYR     : 0.045
#TALWIND     : 0.025
#CHOFFSET    : 0.0
#XLABEL      : Energy (eV)
#YLABEL      : Counts
#XPOSITION   : -1.36264
#YPOSITION   : -0.29886
#ZPOSITION   : 31.0351
#EDSDET      : SD
##SPECIMEN   : SPI MM2 SPI Plagioclase[7][all]
##D2STDCMP   : SPI Plagioclase,(O:46.79),(Na:3.24),(Al:15.54),(Si:24.83),(K:0.2),(Ca:8.53),(Fe:0.27)
##DET_HASH   : 12273538-fd48-a23f-0a19-f1e6fa85caef
##CALIB_HASH : 6abaa72c-aa41-8738-0be9-f592914732f3
##WORKING    : 15.0 mm
##DET_NAME   : EDAX All
##DET_MODE   : MediumLE
#SPECTRUM    :
30,
175,
9326,
4864,
47994,
2235,
2723,
6965,
4342,
4699,
12595,
48779,
55427,
26824,
2909,
2313,
2775,
2354,
2323,
2236,
2329,
2347,
2124,
2601,
2987,
2421,
22566,
8475,
2617,
4831,
1644,
1531,
1536,
1429,
1335,
1394,
1334,
1288,
1237,
1285,
1096,
1116,
1037,
1044,
979,
1123,
1392,
976,
883,
871,
825,
827,
767,
751,
699,
658,
642,
643,
591,
630,
582,
546,
513,
507,
568,
509,
441,
487,
449,
463,
370,
426,
388,
351,
369,
338,
320,
355,
298,
299,
289,
261,
264,
254,
218,
202,
207,
199,
202,
203,
163,
159,
162,
151,
148,
153,
139,
145,
127,
108,
103,
100,
112,
103,
88,
80,
81,
73,
65,
65,
66,
61,
46,
50,
54,
60,
35,
43,
46,
33,
40,
44,
16,
35,
24,
21,
15,
19,
16,
9,
10,
11,
11,
17,
11,
3,
4,
8,
2,
2,
0,
2,
0,
0,
0,
0,
0,
0,
0,
0,
0,
0,
0,
0,
0,
0,
0,
0,
0,
0,
0,
0,
0,
0,
0,
0,
0,
0,
0,
0,
0,
0,
0,
0,
0,
0,
0,
0,
0,
0,
0,
0,
0,
0,
0,
0,
0,
1,
0,
0,
0,
0,
0,
0,
0,
0,
0,
0,
0,
0,
0,
0,
0,
0,
0,
0,
0,
0,
0,
0,
0,
0,
0,
0,
0,
0,
0,
0,
0,
0,
0,
0,
0,
0,
0,
0,
0,
0,
0,
0,
0,
0,
0,
0,
0,
0,
0,
0,
0,
0,
0,
0,
0,
0,
0,
0,
0,
0,
0,
0,
0,
0,
0,
0,
0,
0,
0,
0,
0,
0,
0,
0,
0,
0,
0,
0,
0,
0,
0,
0,
0,
0,
0,
0,
0,
0,
0,
0,
0,
0,
0,
0,
0,
0,
0,
0,
0,
0,
0,
0,
0,
0,
0,
0,
#ENDOFDATA   :