Folder: spex_quant/N132962/Quantification/20 keV/MMM2 (part 6)

File: SPI MM2 Spessartine[7][4].msa
#FORMAT      : EMSA/MAS Spectral Data File
#VERSION     : 1.0
#TITLE       : SPI MM2 Spessartine[7][all]
#DATE        : 13-MAR-2025
#TIME        : 12:10
#OWNER       : Unknown
#NPOINTS     : 4096
#NCOLUMNS    : 1
#XUNITS      : eV
#YUNITS      : counts
#DATATYPE    : Y
#XPERCHAN    : 9.99778
#OFFSET      : 1.69135
#BEAMKV      : 20
#SIGNALTYPE  : EDS
#ELEVANGLE   : 35
#AZIMANGLE   : 0
#LIVETIME    : 239.907
#REALTIME    : 256.2922
#PROBECUR    : 1.02616
#TAUWIND     : 0
#TDEADLYR    : 0
#TACTLYR     : 0.045
#TALWIND     : 0.025
#CHOFFSET    : 0.0
#XLABEL      : Energy (eV)
#YLABEL      : Counts
#XPOSITION   : -5.73199
#YPOSITION   : 1.58477
#ZPOSITION   : 31.03511
#EDSDET      : SD
##SPECIMEN   : SPI MM2 Spessartine[7][all]
##DET_HASH   : 12273538-fd48-a23f-0a19-f1e6fa85caef
##CALIB_HASH : 6abaa72c-aa41-8738-0be9-f592914732f3
##WORKING    : 15.0 mm
##DET_NAME   : EDAX All
##DET_MODE   : MediumLE
#SPECTRUM    :
21,
200,
9907,
7720,
71034,
5415,
2248,
2767,
3282,
3885,
9050,
30273,
37270,
18855,
3261,
3097,
3476,
3112,
3113,
3010,
2880,
2959,
2879,
2885,
2696,
2766,
3185,
2690,
2350,
2564,
2403,
2059,
2089,
2040,
2051,
1827,
1820,
1797,
1724,
1679,
1713,
3422,
70009,
7074,
1430,
2083,
9476,
3692,
1144,
1104,
1209,
1101,
979,
1031,
982,
846,
855,
912,
763,
749,
752,
776,
714,
743,
675,
644,
637,
643,
624,
552,
572,
526,
578,
512,
489,
470,
439,
409,
405,
384,
371,
334,
333,
342,
376,
339,
319,
304,
240,
254,
222,
205,
242,
226,
211,
223,
179,
200,
195,
154,
193,
152,
127,
155,
144,
128,
102,
114,
101,
109,
85,
78,
86,
92,
61,
68,
69,
56,
53,
40,
45,
40,
57,
39,
40,
35,
30,
39,
19,
26,
20,
22,
17,
20,
19,
15,
13,
5,
9,
9,
3,
2,
0,
1,
0,
0,
0,
0,
0,
0,
0,
1,
0,
0,
0,
0,
0,
0,
0,
0,
0,
0,
0,
0,
0,
0,
0,
0,
0,
0,
0,
0,
0,
0,
0,
0,
0,
0,
0,
0,
0,
0,
0,
0,
0,
0,
0,
0,
0,
0,
0,
0,
0,
0,
0,
0,
0,
0,
0,
0,
0,
0,
0,
0,
0,
1,
0,
0,
0,
0,
0,
0,
0,
0,
0,
0,
0,
0,
0,
0,
0,
0,
0,
0,
0,
0,
0,
0,
0,
0,
0,
0,
0,
0,
0,
0,
0,
0,
0,
0,
0,
0,
0,
0,
0,
0,
0,
0,
0,
0,
0,
0,
0,
0,
0,
0,
0,
0,
0,
0,
0,
0,
0,
0,
0,
0,
0,
0,
0,
0,
0,
0,
0,
0,
0,
0,
0,
0,
0,
0,
0,
0,
0,
0,
0,
0,
0,
0,
0,
0,
0,
0,
0,
0,
#ENDOFDATA   :

File: SPI MM2 Sphene[0][4].msa
#FORMAT      : EMSA/MAS Spectral Data File
#VERSION     : 1.0
#TITLE       : SPI MM2 Sphene[0][all]
#DATE        : 13-MAR-2025
#TIME        : 12:58
#OWNER       : Unknown
#NPOINTS     : 4096
#NCOLUMNS    : 1
#XUNITS      : eV
#YUNITS      : counts
#DATATYPE    : Y
#XPERCHAN    : 9.99778
#OFFSET      : 1.69135
#BEAMKV      : 20
#SIGNALTYPE  : EDS
#ELEVANGLE   : 35
#AZIMANGLE   : 0
#LIVETIME    : 239.86
#REALTIME    : 254.821
#PROBECUR    : 1.02627
#TAUWIND     : 0
#TDEADLYR    : 0
#TACTLYR     : 0.045
#TALWIND     : 0.025
#CHOFFSET    : 0.0
#XLABEL      : Energy (eV)
#YLABEL      : Counts
#XPOSITION   : 6.10773
#YPOSITION   : 3.74563
#ZPOSITION   : 31.03511
#EDSDET      : SD
##SPECIMEN   : SPI MM2 Sphene[0][all]
##DET_HASH   : 12273538-fd48-a23f-0a19-f1e6fa85caef
##CALIB_HASH : 6abaa72c-aa41-8738-0be9-f592914732f3
##WORKING    : 15.0 mm
##DET_NAME   : EDAX All
##DET_MODE   : MediumLE
#SPECTRUM    :
25,
200,
13434,
7685,
21759,
2502,
2464,
2829,
3405,
4225,
4781,
6827,
38324,
19473,
4506,
3644,
3783,
3389,
3265,
3285,
3508,
3046,
3052,
2917,
2764,
3327,
55722,
19478,
4748,
10036,
1991,
2606,
61801,
8345,
2037,
9555,
2749,
1456,
1484,
1593,
1351,
1306,
1377,
1265,
1201,
1450,
1844,
1194,
1080,
1039,
1115,
997,
919,
983,
923,
881,
800,
809,
791,
810,
715,
707,
663,
699,
656,
652,
595,
578,
573,
543,
528,
518,
474,
468,
443,
437,
416,
391,
389,
380,
376,
376,
339,
322,
337,
315,
273,
275,
270,
268,
261,
240,
236,
236,
204,
179,
181,
152,
166,
166,
153,
148,
133,
129,
125,
101,
120,
97,
119,
78,
99,
72,
72,
82,
71,
57,
64,
53,
67,
47,
57,
33,
42,
44,
27,
32,
37,
21,
23,
27,
18,
12,
17,
10,
10,
11,
6,
10,
4,
2,
6,
2,
0,
0,
0,
1,
0,
0,
0,
0,
0,
0,
1,
0,
0,
1,
0,
0,
0,
0,
0,
0,
0,
0,
0,
0,
0,
0,
0,
0,
0,
0,
0,
0,
0,
0,
0,
0,
0,
0,
0,
0,
0,
0,
0,
0,
0,
0,
0,
0,
0,
0,
0,
0,
0,
0,
0,
0,
0,
0,
0,
0,
0,
0,
0,
0,
0,
0,
0,
0,
0,
0,
0,
0,
0,
0,
0,
0,
0,
0,
0,
0,
0,
0,
0,
0,
0,
0,
0,
0,
0,
0,
0,
0,
0,
0,
0,
0,
0,
0,
0,
0,
0,
0,
0,
0,
0,
0,
0,
0,
0,
0,
0,
0,
0,
0,
0,
0,
0,
0,
0,
0,
0,
0,
0,
0,
0,
0,
0,
0,
0,
0,
0,
0,
0,
0,
0,
0,
0,
0,
0,
0,
0,
0,
0,
0,
0,
0,
0,
0,
0,
0,
0,
0,
#ENDOFDATA   :

File: SPI MM2 Sphene[1][4].msa
#FORMAT      : EMSA/MAS Spectral Data File
#VERSION     : 1.0
#TITLE       : SPI MM2 Sphene[1][all]
#DATE        : 13-MAR-2025
#TIME        : 12:59
#OWNER       : Unknown
#NPOINTS     : 4096
#NCOLUMNS    : 1
#XUNITS      : eV
#YUNITS      : counts
#DATATYPE    : Y
#XPERCHAN    : 9.99778
#OFFSET      : 1.69135
#BEAMKV      : 20
#SIGNALTYPE  : EDS
#ELEVANGLE   : 35
#AZIMANGLE   : 0
#LIVETIME    : 239.807
#REALTIME    : 254.768
#PROBECUR    : 1.02627
#TAUWIND     : 0
#TDEADLYR    : 0
#TACTLYR     : 0.045
#TALWIND     : 0.025
#CHOFFSET    : 0.0
#XLABEL      : Energy (eV)
#YLABEL      : Counts
#XPOSITION   : 6.01776
#YPOSITION   : 3.75314
#ZPOSITION   : 31.03511
#EDSDET      : SD
##SPECIMEN   : SPI MM2 Sphene[1][all]
##DET_HASH   : 12273538-fd48-a23f-0a19-f1e6fa85caef
##CALIB_HASH : 6abaa72c-aa41-8738-0be9-f592914732f3
##WORKING    : 15.0 mm
##DET_NAME   : EDAX All
##DET_MODE   : MediumLE
#SPECTRUM    :
32,
175,
13355,
7591,
21559,
2410,
2359,
2838,
3423,
4026,
4857,
6998,
38694,
19501,
4685,
3586,
3823,
3345,
3249,
3241,
3511,
3063,
2865,
2874,
2710,
3252,
55551,
19378,
4643,
10035,
2052,
2603,
62323,
8316,
1989,
9778,
2788,
1462,
1434,
1560,
1331,
1305,
1361,
1205,
1184,
1422,
1811,
1096,
1159,
1034,
1054,
940,
1029,
1024,
905,
833,
835,
773,
788,
833,
761,
733,
717,
670,
643,
615,
610,
597,
633,
544,
527,
512,
488,
452,
466,
454,
466,
426,
390,
392,
377,
346,
355,
364,
311,
326,
274,
296,
280,
264,
253,
257,
256,
212,
198,
192,
208,
166,
194,
174,
152,
127,
139,
121,
108,
111,
126,
95,
104,
96,
70,
70,
85,
75,
53,
65,
61,
57,
58,
43,
43,
30,
42,
29,
37,
27,
27,
20,
29,
22,
15,
15,
18,
13,
1,
9,
11,
3,
2,
3,
6,
1,
1,
1,
2,
0,
0,
0,
0,
1,
0,
0,
0,
0,
0,
0,
0,
0,
0,
0,
0,
0,
0,
0,
0,
0,
0,
0,
0,
0,
0,
0,
0,
0,
0,
0,
0,
0,
0,
0,
0,
0,
0,
0,
0,
0,
0,
0,
0,
0,
0,
0,
0,
0,
0,
0,
0,
0,
0,
0,
0,
0,
0,
0,
0,
0,
0,
0,
0,
0,
0,
0,
0,
0,
1,
0,
0,
0,
0,
0,
0,
0,
0,
0,
0,
0,
0,
0,
0,
0,
0,
0,
0,
0,
0,
0,
0,
0,
0,
0,
0,
0,
0,
0,
0,
0,
0,
0,
0,
0,
0,
0,
0,
0,
0,
0,
0,
0,
0,
0,
0,
0,
0,
0,
0,
0,
0,
0,
0,
0,
0,
0,
0,
0,
0,
0,
0,
0,
0,
0,
0,
0,
0,
0,
0,
0,
0,
0,
0,
0,
0,
0,
0,
0,
#ENDOFDATA   :

File: SPI MM2 Sphene[2][4].msa
#FORMAT      : EMSA/MAS Spectral Data File
#VERSION     : 1.0
#TITLE       : SPI MM2 Sphene[2][all]
#DATE        : 13-MAR-2025
#TIME        : 13:00
#OWNER       : Unknown
#NPOINTS     : 4096
#NCOLUMNS    : 1
#XUNITS      : eV
#YUNITS      : counts
#DATATYPE    : Y
#XPERCHAN    : 9.99778
#OFFSET      : 1.69135
#BEAMKV      : 20
#SIGNALTYPE  : EDS
#ELEVANGLE   : 35
#AZIMANGLE   : 0
#LIVETIME    : 239.843
#REALTIME    : 254.823
#PROBECUR    : 1.02627
#TAUWIND     : 0
#TDEADLYR    : 0
#TACTLYR     : 0.045
#TALWIND     : 0.025
#CHOFFSET    : 0.0
#XLABEL      : Energy (eV)
#YLABEL      : Counts
#XPOSITION   : 6.08369
#YPOSITION   : 3.78803
#ZPOSITION   : 31.03511
#EDSDET      : SD
##SPECIMEN   : SPI MM2 Sphene[2][all]
##DET_HASH   : 12273538-fd48-a23f-0a19-f1e6fa85caef
##CALIB_HASH : 6abaa72c-aa41-8738-0be9-f592914732f3
##WORKING    : 15.0 mm
##DET_NAME   : EDAX All
##DET_MODE   : MediumLE
#SPECTRUM    :
22,
197,
13468,
7658,
21670,
2448,
2425,
2906,
3559,
4138,
4951,
7070,
38510,
19505,
4618,
3549,
3859,
3350,
3328,
3368,
3532,
2961,
2909,
3022,
2717,
3225,
55660,
19764,
4463,
10174,
2094,
2598,
61870,
8153,
2041,
9659,
2896,
1516,
1451,
1553,
1352,
1298,
1352,
1176,
1209,
1476,
1791,
1113,
1083,
1048,
1098,
981,
926,
979,
955,
899,
803,
803,
837,
835,
696,
721,
649,
687,
680,
663,
627,
603,
587,
561,
534,
521,
503,
516,
437,
425,
443,
401,
383,
414,
338,
342,
364,
324,
299,
286,
300,
268,
257,
260,
241,
237,
214,
218,
208,
203,
202,
180,
167,
168,
150,
143,
129,
125,
141,
143,
105,
102,
106,
94,
91,
78,
69,
84,
77,
53,
77,
57,
46,
53,
46,
47,
32,
32,
36,
30,
29,
35,
22,
20,
16,
19,
14,
17,
10,
18,
10,
14,
5,
3,
2,
0,
3,
0,
0,
2,
0,
0,
0,
0,
1,
0,
0,
0,
0,
1,
1,
0,
0,
0,
1,
0,
0,
0,
0,
0,
0,
0,
0,
0,
1,
1,
0,
0,
0,
0,
0,
0,
0,
0,
0,
0,
0,
0,
0,
0,
0,
1,
0,
0,
0,
0,
0,
0,
0,
0,
0,
0,
0,
0,
0,
1,
0,
0,
0,
0,
0,
0,
0,
0,
0,
0,
0,
0,
0,
0,
0,
0,
0,
0,
0,
0,
0,
0,
0,
0,
0,
0,
0,
0,
0,
0,
0,
0,
0,
0,
0,
0,
0,
0,
0,
0,
0,
0,
0,
0,
0,
0,
0,
0,
0,
0,
0,
0,
0,
0,
0,
0,
0,
0,
0,
0,
0,
0,
0,
0,
0,
0,
0,
0,
0,
0,
0,
0,
0,
0,
0,
0,
0,
0,
0,
0,
0,
0,
0,
0,
0,
0,
0,
0,
0,
0,
0,
0,
#ENDOFDATA   :

File: SPI MM2 Sphene[3][4].msa
#FORMAT      : EMSA/MAS Spectral Data File
#VERSION     : 1.0
#TITLE       : SPI MM2 Sphene[3][all]
#DATE        : 13-MAR-2025
#TIME        : 13:01
#OWNER       : Unknown
#NPOINTS     : 4096
#NCOLUMNS    : 1
#XUNITS      : eV
#YUNITS      : counts
#DATATYPE    : Y
#XPERCHAN    : 9.99778
#OFFSET      : 1.69135
#BEAMKV      : 20
#SIGNALTYPE  : EDS
#ELEVANGLE   : 35
#AZIMANGLE   : 0
#LIVETIME    : 239.909
#REALTIME    : 254.883
#PROBECUR    : 1.02627
#TAUWIND     : 0
#TDEADLYR    : 0
#TACTLYR     : 0.045
#TALWIND     : 0.025
#CHOFFSET    : 0.0
#XLABEL      : Energy (eV)
#YLABEL      : Counts
#XPOSITION   : 6.08936
#YPOSITION   : 3.70473
#ZPOSITION   : 31.03511
#EDSDET      : SD
##SPECIMEN   : SPI MM2 Sphene[3][all]
##DET_HASH   : 12273538-fd48-a23f-0a19-f1e6fa85caef
##CALIB_HASH : 6abaa72c-aa41-8738-0be9-f592914732f3
##WORKING    : 15.0 mm
##DET_NAME   : EDAX All
##DET_MODE   : MediumLE
#SPECTRUM    :
28,
194,
13635,
7798,
21769,
2455,
2439,
2846,
3389,
4031,
4877,
6846,
38815,
19462,
4513,
3541,
3798,
3446,
3310,
3289,
3454,
3077,
3038,
3051,
2680,
3261,
55362,
19302,
4679,
9981,
1968,
2686,
61738,
8255,
2071,
9593,
2772,
1413,
1455,
1493,
1365,
1364,
1313,
1218,
1224,
1429,
1843,
1116,
1098,
1066,
1113,
1025,
949,
986,
850,
850,
807,
827,
801,
739,
813,
699,
745,
685,
648,
615,
609,
591,
551,
538,
535,
514,
475,
447,
443,
445,
455,
430,
436,
354,
362,
364,
350,
339,
350,
310,
323,
252,
285,
248,
244,
243,
233,
212,
206,
206,
170,
170,
170,
147,
146,
143,
141,
121,
124,
124,
113,
94,
89,
82,
86,
78,
81,
64,
58,
72,
63,
51,
45,
47,
47,
41,
32,
36,
36,
35,
30,
28,
18,
27,
23,
20,
16,
19,
10,
12,
8,
8,
6,
9,
5,
4,
2,
0,
1,
0,
0,
0,
0,
0,
0,
0,
0,
0,
1,
0,
0,
1,
1,
0,
0,
0,
1,
1,
0,
0,
0,
0,
0,
0,
0,
0,
0,
0,
0,
0,
0,
0,
0,
0,
0,
0,
0,
0,
0,
0,
0,
0,
1,
0,
0,
0,
0,
0,
0,
0,
0,
0,
0,
0,
0,
0,
0,
0,
0,
0,
0,
0,
0,
0,
0,
0,
0,
0,
0,
0,
0,
0,
0,
0,
0,
0,
0,
0,
0,
0,
0,
0,
0,
0,
0,
0,
0,
0,
0,
0,
0,
0,
0,
0,
0,
0,
0,
0,
0,
0,
0,
0,
0,
0,
0,
0,
0,
0,
0,
0,
0,
0,
0,
0,
0,
0,
0,
0,
0,
0,
0,
0,
0,
0,
0,
0,
0,
0,
0,
0,
0,
0,
0,
0,
0,
0,
0,
0,
0,
0,
0,
0,
0,
0,
0,
0,
0,
0,
#ENDOFDATA   :

File: SPI MM2 Sphene[4][4].msa
#FORMAT      : EMSA/MAS Spectral Data File
#VERSION     : 1.0
#TITLE       : SPI MM2 Sphene[4][all]
#DATE        : 13-MAR-2025
#TIME        : 13:02
#OWNER       : Unknown
#NPOINTS     : 4096
#NCOLUMNS    : 1
#XUNITS      : eV
#YUNITS      : counts
#DATATYPE    : Y
#XPERCHAN    : 9.99778
#OFFSET      : 1.69135
#BEAMKV      : 20
#SIGNALTYPE  : EDS
#ELEVANGLE   : 35
#AZIMANGLE   : 0
#LIVETIME    : 239.841
#REALTIME    : 254.833
#PROBECUR    : 1.02627
#TAUWIND     : 0
#TDEADLYR    : 0
#TACTLYR     : 0.045
#TALWIND     : 0.025
#CHOFFSET    : 0.0
#XLABEL      : Energy (eV)
#YLABEL      : Counts
#XPOSITION   : 6.06198
#YPOSITION   : 3.74089
#ZPOSITION   : 31.03511
#EDSDET      : SD
##SPECIMEN   : SPI MM2 Sphene[4][all]
##DET_HASH   : 12273538-fd48-a23f-0a19-f1e6fa85caef
##CALIB_HASH : 6abaa72c-aa41-8738-0be9-f592914732f3
##WORKING    : 15.0 mm
##DET_NAME   : EDAX All
##DET_MODE   : MediumLE
#SPECTRUM    :
23,
213,
13490,
7769,
21675,
2526,
2408,
2923,
3480,
4125,
4717,
6926,
38699,
19397,
4776,
3748,
4075,
3447,
3194,
3207,
3336,
3056,
2946,
3002,
2711,
3254,
55774,
19427,
4592,
10260,
2059,
2516,
62260,
8212,
2010,
9667,
2838,
1442,
1437,
1619,
1343,
1319,
1332,
1324,
1274,
1425,
1726,
1085,
1133,
1020,
1080,
1047,
949,
991,
873,
828,
822,
797,
813,
848,
701,
731,
702,
656,
653,
631,
599,
631,
579,
577,
560,
522,
457,
476,
467,
504,
437,
414,
414,
366,
313,
359,
338,
343,
341,
310,
314,
266,
269,
253,
237,
243,
228,
217,
183,
197,
192,
176,
173,
171,
130,
136,
119,
134,
106,
116,
105,
121,
94,
78,
90,
72,
81,
71,
64,
67,
54,
72,
67,
46,
52,
51,
51,
34,
33,
26,
29,
27,
16,
21,
12,
11,
15,
14,
10,
14,
8,
2,
9,
9,
2,
1,
2,
0,
0,
1,
0,
1,
2,
0,
0,
0,
0,
0,
0,
0,
0,
0,
0,
0,
0,
0,
0,
0,
0,
0,
0,
0,
0,
0,
0,
0,
0,
0,
0,
0,
1,
0,
0,
0,
0,
0,
0,
0,
0,
0,
0,
0,
0,
0,
0,
0,
0,
0,
0,
0,
0,
1,
0,
0,
0,
0,
0,
0,
0,
0,
0,
0,
0,
0,
0,
0,
0,
0,
0,
0,
0,
0,
0,
0,
0,
0,
0,
0,
0,
0,
0,
0,
0,
0,
0,
0,
0,
0,
0,
0,
0,
0,
0,
0,
0,
0,
0,
0,
0,
0,
0,
0,
0,
0,
0,
0,
0,
0,
0,
0,
0,
0,
0,
0,
0,
0,
0,
0,
0,
0,
0,
0,
0,
0,
0,
0,
0,
0,
0,
0,
0,
0,
0,
0,
0,
0,
0,
0,
0,
0,
0,
0,
0,
0,
0,
0,
0,
0,
#ENDOFDATA   :

File: SPI MM2 Sphene[5][4].msa
#FORMAT      : EMSA/MAS Spectral Data File
#VERSION     : 1.0
#TITLE       : SPI MM2 Sphene[5][all]
#DATE        : 13-MAR-2025
#TIME        : 13:04
#OWNER       : Unknown
#NPOINTS     : 4096
#NCOLUMNS    : 1
#XUNITS      : eV
#YUNITS      : counts
#DATATYPE    : Y
#XPERCHAN    : 9.99778
#OFFSET      : 1.69135
#BEAMKV      : 20
#SIGNALTYPE  : EDS
#ELEVANGLE   : 35
#AZIMANGLE   : 0
#LIVETIME    : 239.855
#REALTIME    : 254.819
#PROBECUR    : 1.02627
#TAUWIND     : 0
#TDEADLYR    : 0
#TACTLYR     : 0.045
#TALWIND     : 0.025
#CHOFFSET    : 0.0
#XLABEL      : Energy (eV)
#YLABEL      : Counts
#XPOSITION   : 6.07416
#YPOSITION   : 3.81421
#ZPOSITION   : 31.03511
#EDSDET      : SD
##SPECIMEN   : SPI MM2 Sphene[5][all]
##DET_HASH   : 12273538-fd48-a23f-0a19-f1e6fa85caef
##CALIB_HASH : 6abaa72c-aa41-8738-0be9-f592914732f3
##WORKING    : 15.0 mm
##DET_NAME   : EDAX All
##DET_MODE   : MediumLE
#SPECTRUM    :
28,
197,
13368,
7938,
21375,
2465,
2425,
3011,
3325,
3975,
4766,
6926,
38546,
19637,
4616,
3571,
3780,
3410,
3342,
3202,
3533,
3039,
2944,
2958,
2808,
3207,
56052,
19423,
4617,
9995,
2028,
2653,
60863,
8007,
2003,
9533,
2823,
1427,
1388,
1517,
1317,
1327,
1339,
1284,
1232,
1457,
1831,
1106,
1095,
1014,
1044,
1003,
1002,
1041,
926,
837,
807,
856,
839,
822,
798,
726,
701,
656,
653,
626,
609,
606,
563,
552,
570,
565,
522,
447,
429,
448,
398,
437,
407,
359,
401,
371,
307,
351,
303,
297,
280,
281,
264,
282,
240,
236,
220,
205,
202,
185,
182,
187,
170,
155,
143,
143,
130,
144,
127,
128,
99,
116,
85,
91,
82,
71,
82,
74,
68,
75,
65,
72,
58,
56,
45,
32,
39,
34,
29,
32,
27,
33,
25,
28,
20,
19,
20,
16,
7,
10,
7,
6,
6,
5,
3,
3,
2,
0,
1,
0,
0,
0,
0,
0,
1,
0,
0,
1,
0,
0,
0,
0,
0,
0,
0,
0,
0,
0,
0,
0,
0,
0,
0,
0,
0,
0,
0,
0,
0,
0,
0,
0,
0,
0,
0,
0,
0,
0,
0,
0,
0,
0,
0,
0,
0,
0,
0,
0,
0,
0,
0,
0,
0,
0,
0,
0,
0,
0,
0,
0,
0,
0,
0,
0,
0,
0,
0,
0,
0,
0,
0,
0,
0,
0,
0,
0,
0,
0,
0,
0,
0,
0,
0,
0,
0,
0,
0,
0,
0,
0,
0,
0,
0,
0,
0,
0,
0,
0,
0,
0,
0,
0,
0,
0,
0,
0,
0,
0,
0,
0,
0,
0,
0,
0,
0,
0,
0,
0,
0,
0,
0,
0,
0,
0,
0,
0,
0,
0,
0,
0,
0,
0,
0,
0,
0,
0,
0,
0,
0,
0,
0,
0,
0,
0,
0,
0,
0,
0,
#ENDOFDATA   :

File: SPI MM2 Sphene[6][4].msa
#FORMAT      : EMSA/MAS Spectral Data File
#VERSION     : 1.0
#TITLE       : SPI MM2 Sphene[6][all]
#DATE        : 13-MAR-2025
#TIME        : 13:05
#OWNER       : Unknown
#NPOINTS     : 4096
#NCOLUMNS    : 1
#XUNITS      : eV
#YUNITS      : counts
#DATATYPE    : Y
#XPERCHAN    : 9.99778
#OFFSET      : 1.69135
#BEAMKV      : 20
#SIGNALTYPE  : EDS
#ELEVANGLE   : 35
#AZIMANGLE   : 0
#LIVETIME    : 239.906
#REALTIME    : 254.889
#PROBECUR    : 1.0263
#TAUWIND     : 0
#TDEADLYR    : 0
#TACTLYR     : 0.045
#TALWIND     : 0.025
#CHOFFSET    : 0.0
#XLABEL      : Energy (eV)
#YLABEL      : Counts
#XPOSITION   : 6.15798
#YPOSITION   : 3.81345
#ZPOSITION   : 31.03512
#EDSDET      : SD
##SPECIMEN   : SPI MM2 Sphene[6][all]
##DET_HASH   : 12273538-fd48-a23f-0a19-f1e6fa85caef
##CALIB_HASH : 6abaa72c-aa41-8738-0be9-f592914732f3
##WORKING    : 15.0 mm
##DET_NAME   : EDAX All
##DET_MODE   : MediumLE
#SPECTRUM    :
24,
193,
13746,
7881,
21727,
2439,
2416,
2854,
3378,
4075,
4865,
6785,
38147,
19386,
4652,
3673,
3783,
3427,
3264,
3298,
3594,
3095,
2988,
3056,
2698,
3260,
55198,
19599,
4701,
10134,
2054,
2693,
61446,
8320,
1992,
9686,
2824,
1465,
1425,
1572,
1270,
1281,
1349,
1225,
1226,
1422,
1804,
1087,
1072,
988,
1081,
1026,
925,
972,
889,
875,
828,
827,
797,
749,
733,
730,
761,
677,
648,
602,
608,
610,
616,
522,
562,
521,
495,
492,
509,
449,
447,
435,
403,
367,
400,
369,
320,
343,
284,
290,
299,
299,
247,
257,
214,
241,
202,
217,
210,
187,
190,
200,
185,
168,
149,
149,
135,
131,
135,
107,
112,
105,
109,
90,
103,
95,
82,
69,
82,
65,
71,
49,
68,
40,
44,
39,
44,
30,
35,
36,
30,
32,
26,
14,
19,
12,
20,
12,
10,
10,
11,
6,
7,
2,
1,
2,
2,
0,
0,
1,
3,
1,
0,
1,
0,
0,
0,
0,
1,
0,
0,
0,
0,
0,
0,
0,
0,
0,
0,
0,
0,
0,
0,
1,
0,
0,
0,
0,
0,
0,
0,
0,
0,
0,
0,
0,
0,
0,
0,
0,
0,
0,
0,
0,
0,
0,
0,
0,
0,
0,
0,
0,
0,
0,
0,
0,
0,
0,
0,
0,
0,
0,
0,
0,
0,
0,
0,
0,
0,
0,
0,
0,
0,
0,
0,
0,
0,
0,
0,
0,
0,
0,
0,
0,
0,
0,
0,
0,
0,
0,
0,
0,
0,
0,
0,
0,
0,
0,
0,
0,
0,
0,
0,
0,
0,
0,
0,
0,
0,
0,
0,
0,
0,
0,
0,
0,
0,
0,
0,
0,
0,
0,
0,
0,
0,
0,
0,
0,
0,
0,
0,
0,
0,
0,
0,
0,
0,
0,
0,
0,
0,
0,
0,
0,
0,
0,
0,
0,
#ENDOFDATA   :

File: SPI MM2 Sphene[7][4].msa
#FORMAT      : EMSA/MAS Spectral Data File
#VERSION     : 1.0
#TITLE       : SPI MM2 Sphene[7][all]
#DATE        : 13-MAR-2025
#TIME        : 13:06
#OWNER       : Unknown
#NPOINTS     : 4096
#NCOLUMNS    : 1
#XUNITS      : eV
#YUNITS      : counts
#DATATYPE    : Y
#XPERCHAN    : 9.99778
#OFFSET      : 1.69135
#BEAMKV      : 20
#SIGNALTYPE  : EDS
#ELEVANGLE   : 35
#AZIMANGLE   : 0
#LIVETIME    : 239.8535
#REALTIME    : 254.826
#PROBECUR    : 1.0263
#TAUWIND     : 0
#TDEADLYR    : 0
#TACTLYR     : 0.045
#TALWIND     : 0.025
#CHOFFSET    : 0.0
#XLABEL      : Energy (eV)
#YLABEL      : Counts
#XPOSITION   : 6.10352
#YPOSITION   : 3.74686
#ZPOSITION   : 31.03511
#EDSDET      : SD
##SPECIMEN   : SPI MM2 Sphene[7][all]
##DET_HASH   : 12273538-fd48-a23f-0a19-f1e6fa85caef
##CALIB_HASH : 6abaa72c-aa41-8738-0be9-f592914732f3
##WORKING    : 15.0 mm
##DET_NAME   : EDAX All
##DET_MODE   : MediumLE
#SPECTRUM    :
31,
184,
13468,
7682,
21478,
2399,
2470,
2871,
3440,
4102,
4837,
6817,
38330,
19651,
4563,
3651,
3683,
3323,
3337,
3425,
3608,
3127,
2940,
2891,
2762,
3248,
55769,
19788,
4640,
10135,
2029,
2707,
61700,
8143,
1930,
9641,
2802,
1456,
1453,
1557,
1335,
1301,
1356,
1283,
1238,
1373,
1894,
1117,
1061,
1006,
1102,
955,
891,
999,
903,
878,
875,
796,
792,
837,
756,
709,
655,
661,
713,
674,
616,
561,
592,
561,
543,
539,
507,
476,
456,
464,
436,
414,
397,
395,
386,
398,
351,
331,
302,
311,
296,
276,
278,
287,
245,
223,
219,
235,
209,
179,
194,
162,
147,
164,
159,
153,
142,
144,
104,
120,
130,
97,
117,
101,
80,
105,
87,
73,
70,
52,
56,
60,
59,
45,
51,
46,
36,
39,
40,
25,
25,
26,
23,
28,
15,
20,
11,
12,
12,
12,
8,
13,
10,
5,
2,
0,
0,
0,
0,
0,
0,
0,
0,
0,
0,
0,
1,
0,
0,
0,
0,
0,
0,
0,
0,
0,
0,
0,
0,
0,
0,
0,
0,
0,
0,
0,
0,
0,
0,
0,
0,
0,
1,
0,
0,
0,
0,
0,
0,
0,
0,
0,
0,
0,
0,
0,
0,
0,
0,
0,
0,
0,
0,
0,
0,
0,
0,
0,
0,
0,
0,
0,
0,
0,
0,
0,
0,
0,
0,
0,
0,
0,
0,
0,
0,
0,
0,
0,
0,
0,
0,
0,
0,
0,
0,
0,
0,
0,
0,
0,
0,
0,
0,
0,
0,
0,
0,
0,
0,
0,
0,
0,
0,
0,
0,
0,
0,
0,
0,
0,
0,
0,
0,
0,
0,
0,
0,
0,
0,
0,
0,
0,
0,
0,
0,
0,
0,
0,
0,
0,
0,
0,
0,
0,
0,
0,
0,
0,
0,
0,
0,
0,
0,
0,
0,
0,
0,
0,
#ENDOFDATA   :

File: SPI MM2 Sphodumene[0][4].msa
#FORMAT      : EMSA/MAS Spectral Data File
#VERSION     : 1.0
#TITLE       : SPI MM2 Sphodumene[0][all]
#DATE        : 13-MAR-2025
#TIME        : 13:07
#OWNER       : Unknown
#NPOINTS     : 4096
#NCOLUMNS    : 1
#XUNITS      : eV
#YUNITS      : counts
#DATATYPE    : Y
#XPERCHAN    : 9.99778
#OFFSET      : 1.69135
#BEAMKV      : 20
#SIGNALTYPE  : EDS
#ELEVANGLE   : 35
#AZIMANGLE   : 0
#LIVETIME    : 239.846
#REALTIME    : 255.79
#PROBECUR    : 1.0263
#TAUWIND     : 0
#TDEADLYR    : 0
#TACTLYR     : 0.045
#TALWIND     : 0.025
#CHOFFSET    : 0.0
#XLABEL      : Energy (eV)
#YLABEL      : Counts
#XPOSITION   : 3.45115
#YPOSITION   : 3.44289
#ZPOSITION   : 31.03511
#EDSDET      : SD
##SPECIMEN   : SPI MM2 Sphodumene[0][all]
##DET_HASH   : 12273538-fd48-a23f-0a19-f1e6fa85caef
##CALIB_HASH : 6abaa72c-aa41-8738-0be9-f592914732f3
##WORKING    : 15.0 mm
##DET_NAME   : EDAX All
##DET_MODE   : MediumLE
#SPECTRUM    :
36,
181,
8276,
6483,
69788,
1888,
2386,
3272,
3630,
4232,
12230,
48407,
69351,
32436,
2242,
2021,
2723,
2030,
2001,
2008,
2000,
2092,
1967,
2197,
1799,
2135,
1700,
1636,
1647,
1547,
1478,
1382,
1374,
1305,
1273,
1182,
1195,
1137,
1111,
1138,
1018,
941,
985,
913,
883,
871,
864,
806,
785,
715,
720,
697,
648,
622,
643,
649,
584,
580,
545,
567,
495,
513,
463,
472,
477,
399,
426,
384,
363,
363,
330,
348,
328,
303,
314,
310,
313,
249,
245,
245,
268,
221,
212,
216,
212,
189,
195,
207,
172,
170,
136,
146,
156,
131,
128,
113,
132,
118,
104,
100,
92,
98,
96,
74,
75,
67,
62,
77,
65,
53,
64,
78,
47,
43,
39,
54,
32,
41,
32,
23,
22,
26,
29,
26,
18,
20,
13,
18,
16,
21,
16,
11,
9,
11,
12,
6,
7,
9,
3,
2,
0,
0,
0,
0,
0,
0,
0,
0,
0,
0,
0,
0,
0,
0,
0,
0,
0,
0,
0,
0,
0,
0,
0,
0,
0,
0,
0,
0,
0,
0,
0,
0,
0,
0,
0,
1,
0,
0,
0,
0,
0,
0,
0,
0,
0,
0,
0,
0,
0,
0,
0,
0,
0,
0,
0,
0,
0,
0,
0,
1,
0,
0,
0,
0,
0,
0,
0,
0,
0,
0,
0,
0,
0,
0,
0,
0,
0,
0,
0,
0,
0,
0,
0,
0,
0,
0,
0,
0,
0,
0,
0,
0,
0,
0,
0,
0,
0,
0,
0,
0,
0,
0,
0,
0,
0,
0,
0,
0,
0,
0,
0,
0,
0,
0,
0,
0,
0,
0,
0,
0,
0,
0,
0,
0,
0,
0,
0,
0,
0,
0,
0,
0,
0,
0,
0,
0,
0,
0,
0,
0,
0,
0,
0,
0,
0,
0,
0,
0,
0,
0,
0,
0,
0,
0,
#ENDOFDATA   :

File: SPI MM2 Sphodumene[1][4].msa
#FORMAT      : EMSA/MAS Spectral Data File
#VERSION     : 1.0
#TITLE       : SPI MM2 Sphodumene[1][all]
#DATE        : 13-MAR-2025
#TIME        : 13:08
#OWNER       : Unknown
#NPOINTS     : 4096
#NCOLUMNS    : 1
#XUNITS      : eV
#YUNITS      : counts
#DATATYPE    : Y
#XPERCHAN    : 9.99778
#OFFSET      : 1.69135
#BEAMKV      : 20
#SIGNALTYPE  : EDS
#ELEVANGLE   : 35
#AZIMANGLE   : 0
#LIVETIME    : 239.8389
#REALTIME    : 255.792
#PROBECUR    : 1.0263
#TAUWIND     : 0
#TDEADLYR    : 0
#TACTLYR     : 0.045
#TALWIND     : 0.025
#CHOFFSET    : 0.0
#XLABEL      : Energy (eV)
#YLABEL      : Counts
#XPOSITION   : 3.39114
#YPOSITION   : 3.49687
#ZPOSITION   : 31.03511
#EDSDET      : SD
##SPECIMEN   : SPI MM2 Sphodumene[1][all]
##DET_HASH   : 12273538-fd48-a23f-0a19-f1e6fa85caef
##CALIB_HASH : 6abaa72c-aa41-8738-0be9-f592914732f3
##WORKING    : 15.0 mm
##DET_NAME   : EDAX All
##DET_MODE   : MediumLE
#SPECTRUM    :
31,
199,
8350,
6618,
70619,
1821,
2343,
3243,
3591,
4211,
12378,
48140,
69223,
32786,
2130,
1996,
2752,
2087,
2074,
2041,
2038,
2146,
1880,
2246,
1887,
2087,
1771,
1650,
1571,
1540,
1416,
1366,
1343,
1367,
1291,
1311,
1217,
1162,
1099,
1075,
1015,
1005,
960,
922,
896,
878,
946,
808,
819,
776,
747,
720,
647,
650,
650,
617,
580,
527,
538,
518,
520,
522,
469,
467,
440,
438,
422,
414,
430,
359,
315,
365,
330,
329,
316,
339,
297,
271,
262,
240,
259,
243,
209,
236,
201,
188,
197,
170,
150,
178,
168,
152,
140,
127,
144,
138,
111,
109,
120,
108,
98,
78,
81,
77,
84,
79,
72,
70,
63,
47,
52,
47,
44,
49,
46,
45,
36,
35,
37,
38,
24,
22,
24,
24,
18,
26,
23,
18,
13,
9,
10,
8,
12,
8,
7,
5,
9,
1,
3,
1,
0,
4,
2,
0,
0,
0,
0,
0,
0,
0,
0,
0,
0,
0,
0,
0,
0,
0,
0,
0,
0,
0,
0,
0,
0,
0,
0,
0,
0,
0,
0,
0,
0,
0,
0,
0,
0,
0,
0,
0,
0,
0,
0,
0,
0,
0,
0,
0,
0,
0,
0,
0,
0,
0,
0,
0,
0,
0,
0,
0,
0,
0,
0,
0,
0,
0,
0,
0,
0,
0,
0,
0,
0,
0,
0,
0,
0,
0,
0,
0,
0,
0,
0,
0,
0,
0,
0,
0,
0,
0,
0,
0,
0,
0,
0,
0,
0,
0,
0,
0,
0,
0,
0,
0,
0,
0,
0,
0,
0,
0,
0,
0,
0,
0,
0,
0,
0,
0,
0,
0,
0,
0,
0,
0,
0,
0,
0,
0,
0,
0,
0,
0,
0,
0,
0,
0,
0,
0,
0,
0,
0,
0,
0,
0,
0,
0,
0,
0,
0,
0,
0,
0,
0,
0,
#ENDOFDATA   :

File: SPI MM2 Sphodumene[3][4].msa
#FORMAT      : EMSA/MAS Spectral Data File
#VERSION     : 1.0
#TITLE       : SPI MM2 Sphodumene[3][all]
#DATE        : 13-MAR-2025
#TIME        : 13:11
#OWNER       : Unknown
#NPOINTS     : 4096
#NCOLUMNS    : 1
#XUNITS      : eV
#YUNITS      : counts
#DATATYPE    : Y
#XPERCHAN    : 9.99778
#OFFSET      : 1.69135
#BEAMKV      : 20
#SIGNALTYPE  : EDS
#ELEVANGLE   : 35
#AZIMANGLE   : 0
#LIVETIME    : 239.842
#REALTIME    : 255.7923
#PROBECUR    : 1.0263
#TAUWIND     : 0
#TDEADLYR    : 0
#TACTLYR     : 0.045
#TALWIND     : 0.025
#CHOFFSET    : 0.0
#XLABEL      : Energy (eV)
#YLABEL      : Counts
#XPOSITION   : 3.43687
#YPOSITION   : 3.45499
#ZPOSITION   : 31.03511
#EDSDET      : SD
##SPECIMEN   : SPI MM2 Sphodumene[3][all]
##DET_HASH   : 12273538-fd48-a23f-0a19-f1e6fa85caef
##CALIB_HASH : 6abaa72c-aa41-8738-0be9-f592914732f3
##WORKING    : 15.0 mm
##DET_NAME   : EDAX All
##DET_MODE   : MediumLE
#SPECTRUM    :
32,
173,
8081,
6552,
70386,
1869,
2417,
3167,
3591,
4304,
12457,
48610,
68917,
32662,
2102,
2009,
2718,
2054,
1969,
2080,
1951,
2106,
1973,
2300,
1858,
2220,
1772,
1703,
1652,
1589,
1545,
1416,
1334,
1285,
1262,
1237,
1168,
1184,
1125,
1072,
1089,
1058,
986,
938,
875,
973,
893,
821,
773,
748,
739,
723,
706,
688,
620,
601,
578,
576,
529,
532,
508,
487,
473,
489,
472,
426,
439,
420,
420,
420,
338,
320,
347,
320,
334,
295,
317,
275,
274,
250,
226,
228,
213,
230,
216,
211,
186,
183,
151,
173,
147,
162,
146,
153,
144,
110,
126,
110,
102,
103,
112,
82,
95,
84,
66,
71,
74,
62,
55,
65,
48,
59,
43,
40,
31,
32,
45,
34,
39,
32,
30,
24,
20,
23,
27,
18,
16,
19,
16,
14,
7,
8,
12,
8,
3,
4,
5,
2,
5,
3,
3,
2,
0,
0,
0,
0,
0,
0,
0,
0,
0,
0,
0,
0,
0,
0,
0,
0,
0,
1,
0,
0,
0,
0,
0,
0,
0,
0,
0,
0,
0,
0,
0,
0,
0,
0,
0,
0,
0,
0,
0,
0,
0,
0,
0,
0,
0,
0,
0,
0,
0,
0,
0,
0,
0,
0,
0,
0,
0,
0,
0,
0,
0,
0,
0,
0,
0,
0,
0,
0,
0,
0,
0,
0,
0,
0,
0,
0,
0,
0,
0,
0,
0,
0,
0,
0,
0,
0,
0,
0,
0,
0,
0,
0,
0,
0,
0,
0,
0,
0,
0,
0,
0,
0,
0,
0,
0,
0,
0,
0,
0,
0,
0,
0,
0,
0,
0,
0,
0,
0,
0,
0,
0,
0,
0,
0,
0,
0,
0,
0,
0,
0,
0,
0,
0,
0,
0,
0,
0,
0,
0,
0,
0,
0,
0,
0,
0,
0,
0,
0,
0,
0,
0,
0,
#ENDOFDATA   :