Folder: spex_quant/N132962/Quantification/20 keV/MMM2 (part 17)

File: SPI MM2 Willemite[6][4].msa
#FORMAT      : EMSA/MAS Spectral Data File
#VERSION     : 1.0
#TITLE       : SPI MM2 Willemite[6][all]
#DATE        : 13-MAR-2025
#TIME        : 14:09
#OWNER       : Unknown
#NPOINTS     : 4096
#NCOLUMNS    : 1
#XUNITS      : eV
#YUNITS      : counts
#DATATYPE    : Y
#XPERCHAN    : 9.99778
#OFFSET      : 1.69135
#BEAMKV      : 20
#SIGNALTYPE  : EDS
#ELEVANGLE   : 35
#AZIMANGLE   : 0
#LIVETIME    : 239.777
#REALTIME    : 257.521
#PROBECUR    : 1.02609
#TAUWIND     : 0
#TDEADLYR    : 0
#TACTLYR     : 0.045
#TALWIND     : 0.025
#CHOFFSET    : 0.0
#XLABEL      : Energy (eV)
#YLABEL      : Counts
#XPOSITION   : 2.68645
#YPOSITION   : 6.20539
#ZPOSITION   : 31.03511
#EDSDET      : SD
##SPECIMEN   : SPI MM2 Willemite[6][all]
##DET_HASH   : 12273538-fd48-a23f-0a19-f1e6fa85caef
##CALIB_HASH : 6abaa72c-aa41-8738-0be9-f592914732f3
##WORKING    : 15.0 mm
##DET_NAME   : EDAX All
##DET_MODE   : MediumLE
#SPECTRUM    :
32,
249,
11299,
6261,
42431,
4727,
11678,
143727,
6085,
3701,
3338,
4355,
24543,
13273,
3507,
3732,
3790,
3786,
3669,
3850,
3854,
3604,
3492,
3494,
3413,
3364,
3236,
3144,
3020,
2906,
2841,
2754,
2691,
2571,
2540,
2477,
2370,
2355,
2238,
2199,
2164,
2223,
9854,
2591,
1830,
1914,
2772,
2025,
1656,
1675,
1612,
1576,
1500,
1492,
1444,
1295,
1318,
1244,
1210,
1223,
1381,
20324,
34073,
1817,
1095,
1061,
1058,
1225,
5755,
3404,
806,
730,
721,
725,
739,
661,
633,
590,
581,
568,
561,
581,
567,
489,
496,
435,
420,
437,
386,
398,
353,
366,
333,
341,
336,
292,
301,
281,
271,
270,
251,
235,
217,
210,
205,
183,
173,
154,
170,
144,
158,
131,
125,
117,
116,
108,
99,
92,
98,
103,
81,
65,
80,
63,
58,
58,
58,
49,
44,
46,
39,
33,
33,
18,
29,
28,
14,
21,
21,
6,
12,
2,
5,
2,
0,
2,
1,
1,
0,
0,
1,
0,
1,
0,
1,
0,
1,
0,
0,
0,
1,
0,
1,
0,
0,
0,
0,
1,
0,
0,
0,
0,
0,
1,
0,
0,
0,
0,
0,
2,
0,
1,
1,
0,
0,
0,
0,
0,
0,
0,
1,
0,
0,
0,
0,
0,
0,
0,
0,
0,
0,
0,
0,
0,
0,
0,
0,
0,
0,
0,
0,
0,
0,
0,
0,
0,
0,
0,
0,
0,
0,
0,
0,
0,
0,
1,
0,
0,
0,
0,
0,
0,
0,
0,
0,
0,
0,
0,
0,
0,
0,
0,
0,
0,
0,
0,
0,
0,
0,
0,
0,
0,
0,
0,
0,
0,
0,
0,
0,
0,
0,
0,
0,
0,
0,
0,
0,
0,
0,
0,
0,
0,
0,
0,
0,
0,
0,
0,
0,
0,
0,
0,
0,
0,
0,
0,
0,
0,
0,
0,
0,
0,
0,
0,
#ENDOFDATA   :

File: SPI MM2 Willemite[7][4].msa
#FORMAT      : EMSA/MAS Spectral Data File
#VERSION     : 1.0
#TITLE       : SPI MM2 Willemite[7][all]
#DATE        : 13-MAR-2025
#TIME        : 14:11
#OWNER       : Unknown
#NPOINTS     : 4096
#NCOLUMNS    : 1
#XUNITS      : eV
#YUNITS      : counts
#DATATYPE    : Y
#XPERCHAN    : 9.99778
#OFFSET      : 1.69135
#BEAMKV      : 20
#SIGNALTYPE  : EDS
#ELEVANGLE   : 35
#AZIMANGLE   : 0
#LIVETIME    : 239.715
#REALTIME    : 257.395
#PROBECUR    : 1.02609
#TAUWIND     : 0
#TDEADLYR    : 0
#TACTLYR     : 0.045
#TALWIND     : 0.025
#CHOFFSET    : 0.0
#XLABEL      : Energy (eV)
#YLABEL      : Counts
#XPOSITION   : 2.82049
#YPOSITION   : 6.28937
#ZPOSITION   : 31.03511
#EDSDET      : SD
##SPECIMEN   : SPI MM2 Willemite[7][all]
##DET_HASH   : 12273538-fd48-a23f-0a19-f1e6fa85caef
##CALIB_HASH : 6abaa72c-aa41-8738-0be9-f592914732f3
##WORKING    : 15.0 mm
##DET_NAME   : EDAX All
##DET_MODE   : MediumLE
#SPECTRUM    :
21,
248,
11426,
6204,
43440,
4614,
11302,
138191,
6048,
3717,
3446,
4275,
24507,
13322,
3580,
3571,
3785,
3706,
3790,
3806,
3859,
3513,
3601,
3525,
3353,
3367,
3272,
3089,
3086,
3007,
2945,
2877,
2618,
2609,
2515,
2485,
2392,
2327,
2277,
2180,
2118,
2220,
11934,
2872,
1933,
1893,
2974,
2107,
1616,
1653,
1565,
1546,
1464,
1499,
1411,
1332,
1271,
1327,
1243,
1240,
1449,
20027,
33830,
1718,
994,
996,
1003,
1176,
5597,
3177,
796,
717,
721,
695,
746,
680,
681,
621,
589,
572,
535,
550,
545,
494,
496,
441,
468,
425,
394,
441,
360,
384,
335,
346,
316,
310,
290,
291,
280,
247,
239,
226,
247,
233,
193,
199,
181,
141,
152,
131,
135,
130,
123,
109,
140,
109,
95,
87,
79,
87,
68,
76,
80,
76,
51,
51,
46,
42,
48,
36,
35,
30,
29,
27,
21,
21,
16,
6,
13,
5,
6,
2,
4,
1,
2,
1,
3,
1,
0,
0,
0,
0,
1,
0,
1,
1,
1,
3,
0,
0,
1,
1,
0,
0,
0,
0,
0,
0,
0,
1,
0,
0,
0,
1,
0,
0,
1,
0,
0,
0,
0,
0,
0,
1,
0,
1,
0,
0,
0,
0,
0,
0,
0,
0,
0,
0,
1,
0,
0,
0,
0,
1,
0,
0,
0,
0,
0,
0,
0,
1,
0,
0,
0,
0,
0,
0,
0,
0,
1,
0,
0,
0,
0,
0,
0,
0,
0,
0,
0,
0,
0,
0,
0,
0,
0,
0,
0,
0,
0,
0,
0,
0,
0,
0,
0,
0,
0,
0,
0,
0,
0,
0,
0,
0,
0,
0,
0,
0,
0,
0,
0,
0,
0,
0,
0,
0,
0,
0,
0,
0,
0,
0,
0,
0,
0,
0,
0,
0,
0,
0,
0,
0,
0,
0,
0,
0,
0,
0,
0,
0,
0,
0,
0,
0,
#ENDOFDATA   :

File: SPI MM2 Wollastonite[0][4].msa
#FORMAT      : EMSA/MAS Spectral Data File
#VERSION     : 1.0
#TITLE       : SPI MM2 Wollastonite[0][all]
#DATE        : 13-MAR-2025
#TIME        : 13:53
#OWNER       : Unknown
#NPOINTS     : 4096
#NCOLUMNS    : 1
#XUNITS      : eV
#YUNITS      : counts
#DATATYPE    : Y
#XPERCHAN    : 9.99778
#OFFSET      : 1.69135
#BEAMKV      : 20
#SIGNALTYPE  : EDS
#ELEVANGLE   : 35
#AZIMANGLE   : 0
#LIVETIME    : 239.856
#REALTIME    : 256.175
#PROBECUR    : 1.0264
#TAUWIND     : 0
#TDEADLYR    : 0
#TACTLYR     : 0.045
#TALWIND     : 0.025
#CHOFFSET    : 0.0
#XLABEL      : Energy (eV)
#YLABEL      : Counts
#XPOSITION   : 0.00405
#YPOSITION   : 6.24225
#ZPOSITION   : 31.03511
#EDSDET      : SD
##SPECIMEN   : SPI MM2 Wollastonite[0][all]
##DET_HASH   : 12273538-fd48-a23f-0a19-f1e6fa85caef
##CALIB_HASH : 6abaa72c-aa41-8738-0be9-f592914732f3
##WORKING    : 15.0 mm
##DET_NAME   : EDAX All
##DET_MODE   : MediumLE
#SPECTRUM    :
23,
187,
13907,
3097,
24482,
2079,
2701,
3084,
3770,
4362,
4806,
5643,
66269,
31386,
4822,
3095,
3442,
3099,
3076,
2974,
2948,
2866,
2733,
2765,
2592,
3593,
87420,
29395,
5815,
14746,
1877,
1693,
1583,
1545,
1517,
1522,
1458,
1450,
1390,
1710,
1271,
1364,
1309,
1218,
1062,
1129,
1201,
1074,
1005,
994,
997,
963,
909,
1014,
838,
855,
744,
725,
769,
745,
650,
651,
668,
607,
609,
612,
567,
604,
536,
514,
479,
472,
463,
458,
478,
396,
406,
405,
412,
361,
350,
328,
329,
288,
295,
297,
277,
260,
217,
229,
232,
208,
228,
195,
175,
195,
160,
166,
138,
150,
139,
123,
128,
123,
117,
120,
94,
114,
71,
83,
91,
72,
76,
63,
63,
55,
45,
48,
54,
45,
40,
30,
32,
44,
22,
38,
28,
19,
25,
26,
7,
14,
15,
11,
5,
16,
7,
7,
7,
3,
3,
1,
2,
0,
0,
0,
0,
1,
1,
0,
0,
0,
0,
0,
0,
0,
0,
0,
0,
0,
0,
0,
0,
0,
0,
0,
0,
0,
0,
0,
0,
0,
0,
0,
0,
0,
1,
0,
0,
0,
0,
0,
0,
0,
0,
0,
0,
0,
0,
0,
0,
0,
0,
0,
0,
0,
0,
0,
0,
0,
0,
0,
0,
0,
0,
0,
0,
0,
0,
0,
0,
0,
0,
0,
0,
0,
0,
0,
0,
0,
0,
0,
0,
0,
0,
0,
0,
0,
0,
0,
0,
0,
0,
0,
0,
0,
0,
0,
0,
0,
0,
0,
0,
0,
0,
0,
0,
0,
0,
0,
0,
0,
0,
0,
0,
0,
0,
0,
0,
0,
0,
0,
0,
0,
0,
0,
0,
0,
0,
0,
0,
0,
0,
0,
0,
0,
0,
0,
0,
0,
0,
0,
0,
0,
0,
0,
0,
0,
0,
0,
0,
0,
0,
0,
#ENDOFDATA   :

File: SPI MM2 Wollastonite[1][4].msa
#FORMAT      : EMSA/MAS Spectral Data File
#VERSION     : 1.0
#TITLE       : SPI MM2 Wollastonite[1][all]
#DATE        : 13-MAR-2025
#TIME        : 13:54
#OWNER       : Unknown
#NPOINTS     : 4096
#NCOLUMNS    : 1
#XUNITS      : eV
#YUNITS      : counts
#DATATYPE    : Y
#XPERCHAN    : 9.99778
#OFFSET      : 1.69135
#BEAMKV      : 20
#SIGNALTYPE  : EDS
#ELEVANGLE   : 35
#AZIMANGLE   : 0
#LIVETIME    : 239.85
#REALTIME    : 256.179
#PROBECUR    : 1.0264
#TAUWIND     : 0
#TDEADLYR    : 0
#TACTLYR     : 0.045
#TALWIND     : 0.025
#CHOFFSET    : 0.0
#XLABEL      : Energy (eV)
#YLABEL      : Counts
#XPOSITION   : 0.02148
#YPOSITION   : 6.26525
#ZPOSITION   : 31.03511
#EDSDET      : SD
##SPECIMEN   : SPI MM2 Wollastonite[1][all]
##DET_HASH   : 12273538-fd48-a23f-0a19-f1e6fa85caef
##CALIB_HASH : 6abaa72c-aa41-8738-0be9-f592914732f3
##WORKING    : 15.0 mm
##DET_NAME   : EDAX All
##DET_MODE   : MediumLE
#SPECTRUM    :
22,
211,
13968,
3055,
24333,
2140,
2698,
3113,
3695,
4300,
4893,
5572,
66570,
31637,
4790,
3184,
3517,
3086,
3053,
2918,
2975,
2840,
2813,
2771,
2567,
3593,
86928,
29341,
5758,
14706,
1817,
1619,
1566,
1667,
1491,
1465,
1463,
1385,
1455,
1694,
1340,
1309,
1361,
1182,
1185,
1160,
1238,
1071,
1023,
984,
940,
914,
918,
1048,
804,
844,
773,
819,
711,
734,
705,
699,
667,
627,
612,
586,
591,
545,
569,
509,
498,
498,
498,
448,
416,
402,
407,
361,
402,
352,
345,
319,
346,
293,
294,
285,
290,
248,
242,
251,
219,
218,
212,
213,
149,
192,
178,
171,
167,
156,
130,
132,
142,
121,
117,
97,
92,
111,
82,
101,
73,
74,
82,
62,
81,
76,
50,
49,
57,
42,
41,
36,
33,
33,
45,
31,
34,
18,
19,
25,
17,
15,
18,
9,
8,
9,
7,
7,
6,
6,
2,
5,
2,
0,
0,
0,
0,
1,
0,
0,
0,
1,
1,
0,
0,
1,
0,
0,
1,
0,
0,
0,
1,
0,
1,
0,
0,
0,
0,
0,
1,
0,
0,
0,
0,
0,
0,
0,
0,
0,
0,
0,
0,
0,
0,
1,
0,
0,
0,
0,
0,
0,
0,
0,
0,
0,
0,
0,
0,
0,
0,
0,
0,
0,
0,
0,
0,
0,
0,
0,
0,
0,
0,
0,
0,
0,
0,
0,
0,
0,
0,
0,
0,
0,
0,
0,
0,
0,
0,
0,
0,
0,
0,
0,
0,
0,
0,
0,
0,
0,
0,
0,
0,
0,
0,
0,
0,
0,
0,
0,
0,
0,
0,
0,
0,
0,
0,
0,
0,
0,
0,
0,
0,
0,
0,
0,
0,
0,
0,
0,
0,
0,
0,
0,
0,
0,
0,
0,
0,
0,
0,
0,
0,
0,
0,
0,
0,
0,
0,
0,
0,
0,
0,
0,
#ENDOFDATA   :

File: SPI MM2 Wollastonite[2][4].msa
#FORMAT      : EMSA/MAS Spectral Data File
#VERSION     : 1.0
#TITLE       : SPI MM2 Wollastonite[2][all]
#DATE        : 13-MAR-2025
#TIME        : 13:56
#OWNER       : Unknown
#NPOINTS     : 4096
#NCOLUMNS    : 1
#XUNITS      : eV
#YUNITS      : counts
#DATATYPE    : Y
#XPERCHAN    : 9.99778
#OFFSET      : 1.69135
#BEAMKV      : 20
#SIGNALTYPE  : EDS
#ELEVANGLE   : 35
#AZIMANGLE   : 0
#LIVETIME    : 239.806
#REALTIME    : 256.108
#PROBECUR    : 1.0264
#TAUWIND     : 0
#TDEADLYR    : 0
#TACTLYR     : 0.045
#TALWIND     : 0.025
#CHOFFSET    : 0.0
#XLABEL      : Energy (eV)
#YLABEL      : Counts
#XPOSITION   : -0.05192
#YPOSITION   : 6.24196
#ZPOSITION   : 31.03511
#EDSDET      : SD
##SPECIMEN   : SPI MM2 Wollastonite[2][all]
##DET_HASH   : 12273538-fd48-a23f-0a19-f1e6fa85caef
##CALIB_HASH : 6abaa72c-aa41-8738-0be9-f592914732f3
##WORKING    : 15.0 mm
##DET_NAME   : EDAX All
##DET_MODE   : MediumLE
#SPECTRUM    :
31,
175,
13875,
3012,
24032,
2076,
2678,
3118,
3701,
4331,
4692,
5630,
66364,
31415,
4906,
3257,
3431,
3135,
3003,
2997,
2892,
2831,
2733,
2693,
2520,
3607,
86881,
29233,
5914,
14623,
1856,
1620,
1589,
1610,
1513,
1539,
1389,
1526,
1401,
1735,
1254,
1327,
1405,
1187,
1199,
1157,
1149,
1030,
1063,
974,
925,
872,
895,
1036,
882,
858,
808,
808,
713,
714,
702,
643,
677,
667,
586,
566,
545,
551,
543,
510,
482,
458,
495,
462,
473,
463,
384,
375,
368,
353,
343,
320,
345,
337,
296,
285,
255,
249,
230,
254,
238,
214,
222,
196,
186,
190,
173,
162,
168,
142,
120,
161,
127,
127,
126,
127,
98,
102,
83,
105,
92,
71,
86,
61,
56,
58,
51,
57,
52,
45,
39,
33,
33,
35,
30,
27,
20,
30,
19,
19,
27,
17,
11,
15,
6,
11,
9,
8,
5,
4,
2,
4,
1,
0,
0,
0,
0,
1,
0,
0,
0,
2,
0,
0,
0,
0,
0,
0,
1,
0,
0,
0,
0,
0,
0,
0,
0,
0,
0,
0,
0,
0,
0,
0,
0,
0,
0,
0,
0,
0,
0,
0,
0,
0,
0,
0,
0,
0,
0,
0,
0,
0,
0,
0,
0,
0,
0,
0,
0,
0,
0,
0,
0,
0,
0,
0,
0,
0,
0,
0,
0,
0,
0,
0,
0,
0,
0,
0,
0,
0,
0,
0,
0,
0,
0,
0,
0,
0,
0,
0,
0,
0,
0,
0,
0,
0,
0,
0,
0,
0,
0,
0,
0,
0,
0,
0,
0,
0,
0,
0,
0,
0,
0,
0,
0,
0,
0,
0,
0,
0,
0,
0,
0,
0,
0,
0,
0,
0,
0,
0,
0,
0,
0,
0,
0,
0,
0,
0,
0,
0,
0,
0,
0,
0,
0,
0,
0,
0,
0,
0,
0,
0,
0,
0,
#ENDOFDATA   :

File: SPI MM2 Wollastonite[3][4].msa
#FORMAT      : EMSA/MAS Spectral Data File
#VERSION     : 1.0
#TITLE       : SPI MM2 Wollastonite[3][all]
#DATE        : 13-MAR-2025
#TIME        : 13:57
#OWNER       : Unknown
#NPOINTS     : 4096
#NCOLUMNS    : 1
#XUNITS      : eV
#YUNITS      : counts
#DATATYPE    : Y
#XPERCHAN    : 9.99778
#OFFSET      : 1.69135
#BEAMKV      : 20
#SIGNALTYPE  : EDS
#ELEVANGLE   : 35
#AZIMANGLE   : 0
#LIVETIME    : 239.866
#REALTIME    : 256.167
#PROBECUR    : 1.0264
#TAUWIND     : 0
#TDEADLYR    : 0
#TACTLYR     : 0.045
#TALWIND     : 0.025
#CHOFFSET    : 0.0
#XLABEL      : Energy (eV)
#YLABEL      : Counts
#XPOSITION   : -0.03743
#YPOSITION   : 6.17366
#ZPOSITION   : 31.03511
#EDSDET      : SD
##SPECIMEN   : SPI MM2 Wollastonite[3][all]
##DET_HASH   : 12273538-fd48-a23f-0a19-f1e6fa85caef
##CALIB_HASH : 6abaa72c-aa41-8738-0be9-f592914732f3
##WORKING    : 15.0 mm
##DET_NAME   : EDAX All
##DET_MODE   : MediumLE
#SPECTRUM    :
26,
187,
13802,
3110,
23955,
1963,
2726,
3205,
3718,
4368,
4740,
5679,
66009,
31496,
4735,
3217,
3393,
2965,
3037,
3017,
2982,
2832,
2848,
2785,
2588,
3541,
86765,
29556,
5739,
14563,
1886,
1525,
1701,
1586,
1499,
1473,
1556,
1456,
1445,
1712,
1312,
1253,
1308,
1134,
1163,
1074,
1213,
1059,
1021,
1009,
1018,
969,
944,
973,
857,
839,
852,
781,
740,
733,
669,
677,
659,
632,
634,
603,
609,
549,
544,
557,
530,
501,
485,
424,
437,
458,
390,
404,
392,
371,
402,
332,
330,
328,
295,
292,
258,
276,
263,
231,
230,
211,
206,
199,
215,
191,
157,
172,
144,
161,
140,
124,
131,
105,
111,
112,
93,
96,
85,
76,
83,
81,
62,
66,
61,
58,
51,
59,
42,
41,
56,
36,
31,
30,
28,
31,
19,
29,
24,
25,
14,
15,
15,
13,
14,
10,
11,
11,
9,
4,
2,
1,
1,
1,
0,
0,
0,
0,
1,
0,
1,
1,
0,
0,
0,
0,
0,
0,
0,
1,
1,
0,
0,
0,
0,
0,
0,
0,
0,
0,
0,
0,
0,
0,
0,
0,
0,
0,
0,
0,
0,
1,
0,
0,
0,
0,
0,
0,
0,
0,
0,
0,
0,
0,
0,
0,
0,
0,
0,
0,
0,
0,
0,
0,
0,
0,
0,
0,
0,
0,
0,
0,
0,
0,
0,
0,
0,
0,
0,
0,
0,
0,
0,
0,
0,
0,
0,
0,
0,
0,
0,
0,
0,
0,
0,
0,
0,
0,
0,
0,
0,
1,
0,
0,
0,
0,
0,
0,
0,
0,
0,
0,
0,
0,
0,
0,
0,
0,
0,
0,
0,
0,
0,
0,
0,
0,
0,
0,
0,
0,
0,
0,
0,
0,
0,
0,
0,
0,
0,
0,
0,
0,
0,
0,
0,
0,
0,
0,
0,
0,
0,
0,
0,
0,
#ENDOFDATA   :

File: SPI MM2 Wollastonite[5][4].msa
#FORMAT      : EMSA/MAS Spectral Data File
#VERSION     : 1.0
#TITLE       : SPI MM2 Wollastonite[5][all]
#DATE        : 13-MAR-2025
#TIME        : 13:59
#OWNER       : Unknown
#NPOINTS     : 4096
#NCOLUMNS    : 1
#XUNITS      : eV
#YUNITS      : counts
#DATATYPE    : Y
#XPERCHAN    : 9.99778
#OFFSET      : 1.69135
#BEAMKV      : 20
#SIGNALTYPE  : EDS
#ELEVANGLE   : 35
#AZIMANGLE   : 0
#LIVETIME    : 239.908
#REALTIME    : 256.243
#PROBECUR    : 1.0264
#TAUWIND     : 0
#TDEADLYR    : 0
#TACTLYR     : 0.045
#TALWIND     : 0.025
#CHOFFSET    : 0.0
#XLABEL      : Energy (eV)
#YLABEL      : Counts
#XPOSITION   : 0.04219
#YPOSITION   : 6.24099
#ZPOSITION   : 31.03511
#EDSDET      : SD
##SPECIMEN   : SPI MM2 Wollastonite[5][all]
##DET_HASH   : 12273538-fd48-a23f-0a19-f1e6fa85caef
##CALIB_HASH : 6abaa72c-aa41-8738-0be9-f592914732f3
##WORKING    : 15.0 mm
##DET_NAME   : EDAX All
##DET_MODE   : MediumLE
#SPECTRUM    :
24,
181,
13847,
3068,
24327,
2139,
2661,
3211,
3682,
4295,
4835,
5606,
66281,
31616,
4768,
3084,
3476,
3109,
3068,
3033,
2953,
2854,
2786,
2837,
2582,
3685,
87094,
29262,
5895,
14524,
1770,
1562,
1574,
1553,
1572,
1546,
1448,
1398,
1429,
1744,
1299,
1279,
1321,
1203,
1134,
1221,
1145,
1063,
987,
1016,
985,
916,
905,
1004,
864,
837,
772,
821,
751,
741,
656,
677,
656,
635,
649,
561,
549,
531,
536,
567,
485,
513,
469,
443,
448,
420,
390,
418,
413,
373,
351,
344,
300,
307,
301,
284,
250,
269,
215,
220,
240,
220,
213,
214,
196,
182,
165,
172,
152,
160,
148,
143,
123,
113,
117,
118,
104,
98,
101,
104,
81,
76,
66,
62,
55,
68,
46,
47,
54,
54,
45,
39,
31,
35,
28,
24,
24,
20,
23,
21,
23,
24,
11,
8,
14,
5,
6,
5,
2,
7,
2,
2,
0,
1,
0,
0,
2,
0,
0,
0,
1,
0,
0,
0,
0,
1,
0,
0,
0,
0,
0,
0,
0,
0,
0,
0,
0,
0,
0,
1,
0,
0,
0,
0,
0,
0,
0,
0,
0,
0,
0,
0,
0,
1,
0,
0,
0,
0,
0,
0,
0,
0,
0,
0,
0,
0,
0,
0,
0,
0,
0,
0,
0,
0,
0,
0,
0,
0,
0,
0,
0,
0,
0,
1,
0,
0,
0,
0,
0,
0,
0,
0,
0,
0,
0,
0,
0,
0,
0,
0,
0,
0,
0,
0,
0,
0,
0,
0,
0,
0,
0,
0,
0,
0,
0,
0,
0,
0,
0,
0,
0,
0,
0,
0,
0,
0,
0,
0,
0,
0,
0,
0,
0,
0,
0,
0,
0,
0,
0,
0,
0,
0,
0,
0,
0,
0,
0,
0,
0,
0,
0,
0,
0,
0,
0,
0,
0,
0,
0,
0,
0,
0,
0,
0,
#ENDOFDATA   :

File: SPI MM2 Wollastonite[6][4].msa
#FORMAT      : EMSA/MAS Spectral Data File
#VERSION     : 1.0
#TITLE       : SPI MM2 Wollastonite[6][all]
#DATE        : 13-MAR-2025
#TIME        : 14:00
#OWNER       : Unknown
#NPOINTS     : 4096
#NCOLUMNS    : 1
#XUNITS      : eV
#YUNITS      : counts
#DATATYPE    : Y
#XPERCHAN    : 9.99778
#OFFSET      : 1.69135
#BEAMKV      : 20
#SIGNALTYPE  : EDS
#ELEVANGLE   : 35
#AZIMANGLE   : 0
#LIVETIME    : 239.87
#REALTIME    : 256.165
#PROBECUR    : 1.0264
#TAUWIND     : 0
#TDEADLYR    : 0
#TACTLYR     : 0.045
#TALWIND     : 0.025
#CHOFFSET    : 0.0
#XLABEL      : Energy (eV)
#YLABEL      : Counts
#XPOSITION   : -0.03496
#YPOSITION   : 6.16508
#ZPOSITION   : 31.03511
#EDSDET      : SD
##SPECIMEN   : SPI MM2 Wollastonite[6][all]
##DET_HASH   : 12273538-fd48-a23f-0a19-f1e6fa85caef
##CALIB_HASH : 6abaa72c-aa41-8738-0be9-f592914732f3
##WORKING    : 15.0 mm
##DET_NAME   : EDAX All
##DET_MODE   : MediumLE
#SPECTRUM    :
23,
170,
14074,
3077,
24319,
2036,
2729,
3202,
3786,
4353,
4877,
5685,
65982,
31056,
4773,
3053,
3430,
3151,
3049,
3042,
2851,
2867,
2794,
2747,
2688,
3598,
87063,
29047,
5773,
14609,
1804,
1593,
1626,
1563,
1510,
1424,
1516,
1477,
1403,
1703,
1303,
1348,
1345,
1198,
1197,
1170,
1186,
1029,
1007,
945,
1003,
947,
912,
1036,
884,
838,
786,
757,
716,
684,
709,
642,
645,
634,
622,
566,
550,
578,
494,
539,
488,
494,
464,
452,
438,
446,
362,
370,
371,
382,
384,
318,
318,
322,
319,
278,
273,
243,
240,
226,
206,
210,
203,
197,
207,
189,
194,
176,
151,
150,
134,
143,
129,
108,
108,
115,
95,
97,
100,
87,
85,
82,
71,
62,
69,
74,
53,
38,
40,
41,
37,
42,
34,
43,
26,
35,
26,
19,
22,
13,
17,
15,
19,
10,
16,
14,
10,
6,
9,
8,
6,
2,
0,
1,
1,
0,
0,
0,
0,
0,
1,
0,
1,
0,
1,
0,
0,
0,
0,
0,
0,
0,
0,
0,
0,
0,
0,
0,
0,
0,
0,
0,
0,
0,
0,
0,
0,
0,
0,
0,
0,
0,
0,
0,
0,
0,
0,
0,
0,
0,
0,
0,
0,
0,
0,
0,
0,
0,
0,
0,
0,
0,
0,
0,
0,
0,
0,
0,
0,
0,
0,
0,
0,
0,
0,
0,
0,
0,
0,
0,
0,
0,
0,
0,
0,
0,
0,
0,
0,
0,
0,
0,
0,
0,
0,
0,
0,
0,
0,
0,
0,
0,
0,
0,
0,
0,
0,
0,
0,
0,
0,
0,
0,
0,
0,
0,
0,
0,
0,
0,
0,
0,
0,
0,
0,
0,
0,
0,
0,
0,
0,
0,
0,
0,
0,
0,
0,
0,
0,
0,
0,
0,
0,
0,
0,
0,
0,
0,
0,
0,
0,
0,
0,
0,
#ENDOFDATA   :

File: SPI MM2 Wollastonite[7][4].msa
#FORMAT      : EMSA/MAS Spectral Data File
#VERSION     : 1.0
#TITLE       : SPI MM2 Wollastonite[7][all]
#DATE        : 13-MAR-2025
#TIME        : 14:01
#OWNER       : Unknown
#NPOINTS     : 4096
#NCOLUMNS    : 1
#XUNITS      : eV
#YUNITS      : counts
#DATATYPE    : Y
#XPERCHAN    : 9.99778
#OFFSET      : 1.69135
#BEAMKV      : 20
#SIGNALTYPE  : EDS
#ELEVANGLE   : 35
#AZIMANGLE   : 0
#LIVETIME    : 239.81
#REALTIME    : 256.108
#PROBECUR    : 1.0264
#TAUWIND     : 0
#TDEADLYR    : 0
#TACTLYR     : 0.045
#TALWIND     : 0.025
#CHOFFSET    : 0.0
#XLABEL      : Energy (eV)
#YLABEL      : Counts
#XPOSITION   : -0.01652
#YPOSITION   : 6.28295
#ZPOSITION   : 31.03511
#EDSDET      : SD
##SPECIMEN   : SPI MM2 Wollastonite[7][all]
##DET_HASH   : 12273538-fd48-a23f-0a19-f1e6fa85caef
##CALIB_HASH : 6abaa72c-aa41-8738-0be9-f592914732f3
##WORKING    : 15.0 mm
##DET_NAME   : EDAX All
##DET_MODE   : MediumLE
#SPECTRUM    :
28,
185,
14001,
3085,
24051,
2063,
2656,
3067,
3728,
4339,
4833,
5601,
65546,
31336,
4897,
3168,
3435,
2987,
2967,
2992,
2919,
2858,
2853,
2660,
2538,
3624,
86842,
29294,
5715,
14733,
1832,
1561,
1609,
1577,
1586,
1469,
1439,
1404,
1395,
1764,
1309,
1261,
1336,
1176,
1139,
1201,
1245,
1087,
1075,
952,
986,
952,
889,
982,
868,
864,
780,
776,
695,
749,
696,
704,
635,
643,
615,
583,
533,
565,
524,
517,
539,
490,
479,
457,
476,
426,
422,
372,
361,
389,
354,
330,
301,
313,
283,
302,
269,
269,
293,
234,
258,
224,
198,
205,
229,
192,
178,
184,
159,
158,
154,
135,
127,
121,
123,
104,
97,
98,
84,
80,
97,
65,
71,
68,
68,
63,
70,
50,
46,
37,
33,
37,
30,
34,
28,
34,
23,
17,
17,
17,
23,
14,
22,
16,
11,
5,
7,
6,
6,
4,
6,
0,
1,
1,
0,
1,
0,
0,
0,
1,
0,
1,
0,
0,
1,
1,
0,
0,
0,
0,
0,
0,
0,
0,
0,
0,
0,
0,
0,
0,
0,
0,
0,
0,
0,
0,
0,
0,
0,
0,
0,
0,
0,
0,
0,
0,
0,
0,
0,
0,
0,
0,
0,
0,
0,
0,
0,
0,
0,
0,
0,
0,
0,
0,
0,
0,
0,
0,
0,
0,
0,
0,
0,
0,
0,
0,
0,
0,
0,
0,
0,
0,
0,
0,
0,
0,
0,
0,
0,
0,
0,
0,
0,
0,
0,
0,
0,
0,
0,
0,
0,
0,
0,
0,
0,
0,
0,
0,
0,
0,
0,
0,
0,
0,
0,
0,
0,
0,
0,
0,
0,
0,
0,
0,
0,
0,
0,
0,
0,
0,
0,
0,
0,
0,
0,
0,
0,
0,
0,
0,
0,
0,
0,
0,
0,
0,
0,
0,
0,
0,
0,
0,
0,
0,
#ENDOFDATA   :

File: SPI MM2 Zircon[0][4].msa
#FORMAT      : EMSA/MAS Spectral Data File
#VERSION     : 1.0
#TITLE       : SPI MM2 Zircon[0][all]
#DATE        : 13-MAR-2025
#TIME        : 13:44
#OWNER       : Unknown
#NPOINTS     : 4096
#NCOLUMNS    : 1
#XUNITS      : eV
#YUNITS      : counts
#DATATYPE    : Y
#XPERCHAN    : 9.99778
#OFFSET      : 1.69135
#BEAMKV      : 20
#SIGNALTYPE  : EDS
#ELEVANGLE   : 35
#AZIMANGLE   : 0
#LIVETIME    : 239.703
#REALTIME    : 257.331
#PROBECUR    : 1.0264
#TAUWIND     : 0
#TDEADLYR    : 0
#TACTLYR     : 0.045
#TALWIND     : 0.025
#CHOFFSET    : 0.0
#XLABEL      : Energy (eV)
#YLABEL      : Counts
#XPOSITION   : -2.66678
#YPOSITION   : 6.6799
#ZPOSITION   : 31.03511
#EDSDET      : SD
##SPECIMEN   : SPI MM2 Zircon[0][all]
##DET_HASH   : 12273538-fd48-a23f-0a19-f1e6fa85caef
##CALIB_HASH : 6abaa72c-aa41-8738-0be9-f592914732f3
##WORKING    : 15.0 mm
##DET_NAME   : EDAX All
##DET_MODE   : MediumLE
#SPECTRUM    :
32,
770,
14710,
4437,
25522,
3469,
4363,
4898,
5773,
6716,
6963,
7966,
51164,
32270,
27808,
102551,
12359,
3359,
4136,
3135,
3031,
3277,
3140,
3207,
3005,
3187,
3109,
3220,
2981,
2998,
2942,
2785,
2736,
2681,
2594,
2470,
2394,
2425,
2434,
2290,
2139,
2157,
2042,
1944,
1949,
2012,
2039,
1782,
1770,
1657,
1815,
1584,
1446,
1598,
1545,
1390,
1613,
1553,
1273,
1333,
1240,
1203,
1207,
1109,
1167,
1259,
1109,
1033,
987,
947,
886,
881,
900,
855,
804,
842,
789,
809,
712,
683,
642,
649,
610,
600,
541,
549,
521,
512,
485,
462,
413,
434,
433,
422,
366,
370,
328,
330,
295,
297,
265,
256,
243,
243,
223,
225,
222,
209,
160,
182,
190,
229,
479,
419,
178,
109,
97,
117,
101,
104,
95,
67,
84,
82,
48,
79,
98,
65,
55,
46,
32,
36,
33,
29,
17,
30,
16,
18,
13,
11,
11,
8,
4,
0,
1,
0,
0,
0,
0,
0,
1,
0,
0,
1,
0,
0,
0,
0,
0,
0,
0,
0,
0,
0,
2,
0,
0,
0,
1,
0,
0,
0,
0,
1,
0,
0,
0,
0,
0,
0,
0,
1,
0,
0,
0,
0,
0,
0,
0,
1,
0,
0,
0,
0,
0,
0,
0,
0,
0,
0,
0,
0,
0,
0,
0,
0,
0,
0,
0,
0,
0,
0,
0,
0,
0,
0,
0,
0,
0,
0,
0,
0,
0,
0,
0,
0,
0,
0,
0,
0,
0,
0,
0,
0,
0,
0,
0,
0,
0,
0,
0,
0,
0,
0,
0,
0,
0,
0,
0,
0,
0,
0,
0,
0,
0,
0,
0,
0,
0,
0,
0,
0,
0,
0,
0,
0,
0,
0,
0,
0,
0,
0,
0,
0,
0,
0,
0,
0,
0,
0,
0,
0,
0,
0,
0,
0,
0,
0,
0,
0,
0,
0,
0,
0,
#ENDOFDATA   :

File: SPI MM2 Zircon[1][4].msa
#FORMAT      : EMSA/MAS Spectral Data File
#VERSION     : 1.0
#TITLE       : SPI MM2 Zircon[1][all]
#DATE        : 13-MAR-2025
#TIME        : 13:45
#OWNER       : Unknown
#NPOINTS     : 4096
#NCOLUMNS    : 1
#XUNITS      : eV
#YUNITS      : counts
#DATATYPE    : Y
#XPERCHAN    : 9.99778
#OFFSET      : 1.69135
#BEAMKV      : 20
#SIGNALTYPE  : EDS
#ELEVANGLE   : 35
#AZIMANGLE   : 0
#LIVETIME    : 239.917
#REALTIME    : 257.507
#PROBECUR    : 1.0264
#TAUWIND     : 0
#TDEADLYR    : 0
#TACTLYR     : 0.045
#TALWIND     : 0.025
#CHOFFSET    : 0.0
#XLABEL      : Energy (eV)
#YLABEL      : Counts
#XPOSITION   : -2.71396
#YPOSITION   : 6.67237
#ZPOSITION   : 31.03511
#EDSDET      : SD
##SPECIMEN   : SPI MM2 Zircon[1][all]
##DET_HASH   : 12273538-fd48-a23f-0a19-f1e6fa85caef
##CALIB_HASH : 6abaa72c-aa41-8738-0be9-f592914732f3
##WORKING    : 15.0 mm
##DET_NAME   : EDAX All
##DET_MODE   : MediumLE
#SPECTRUM    :
11,
717,
14544,
4556,
25451,
3459,
4362,
4810,
5678,
6420,
7208,
7748,
50942,
32273,
27684,
103076,
12198,
3285,
4168,
3133,
3032,
3172,
3148,
3098,
3129,
3190,
3002,
3268,
3038,
3088,
2857,
2834,
2780,
2619,
2589,
2432,
2450,
2540,
2355,
2254,
2243,
2188,
2056,
2035,
1979,
1961,
2111,
1803,
1796,
1755,
1684,
1580,
1501,
1587,
1525,
1412,
1667,
1468,
1266,
1308,
1231,
1201,
1198,
1151,
1223,
1136,
1091,
1044,
939,
928,
919,
859,
802,
777,
848,
834,
780,
765,
718,
690,
651,
639,
650,
565,
535,
537,
537,
508,
481,
441,
456,
432,
406,
382,
332,
371,
363,
325,
311,
264,
291,
238,
242,
251,
213,
186,
210,
200,
170,
174,
168,
243,
511,
392,
152,
131,
91,
113,
96,
100,
105,
81,
74,
68,
92,
66,
108,
52,
48,
41,
38,
26,
30,
35,
25,
16,
15,
13,
14,
6,
6,
4,
3,
4,
0,
0,
0,
0,
1,
1,
0,
0,
2,
1,
0,
1,
0,
0,
0,
0,
0,
2,
0,
0,
0,
1,
1,
1,
0,
0,
0,
2,
2,
0,
0,
0,
0,
0,
0,
0,
0,
0,
0,
1,
1,
0,
0,
0,
0,
1,
0,
0,
0,
0,
0,
0,
0,
0,
0,
1,
0,
0,
0,
0,
0,
0,
2,
0,
0,
0,
0,
1,
0,
0,
0,
0,
0,
0,
0,
0,
0,
0,
0,
0,
0,
0,
0,
0,
0,
0,
0,
0,
0,
0,
0,
0,
0,
0,
0,
0,
0,
0,
0,
0,
0,
0,
0,
0,
0,
0,
0,
0,
0,
0,
0,
0,
0,
0,
0,
0,
0,
0,
0,
0,
0,
0,
0,
0,
0,
0,
0,
0,
0,
0,
0,
0,
0,
0,
0,
0,
0,
0,
0,
0,
0,
0,
0,
0,
0,
0,
0,
0,
0,
0,
#ENDOFDATA   :