Folder: spex_quant/N132962/Quantification/20 keV/MMM2 (part 14)

File: SPI MM2 SPI Pollucite[0][4].msa
#FORMAT      : EMSA/MAS Spectral Data File
#VERSION     : 1.0
#TITLE       : SPI MM2 SPI Pollucite[0][all]
#DATE        : 13-MAR-2025
#TIME        : 10:59
#OWNER       : Unknown
#NPOINTS     : 4096
#NCOLUMNS    : 1
#XUNITS      : eV
#YUNITS      : counts
#DATATYPE    : Y
#XPERCHAN    : 9.99778
#OFFSET      : 1.69135
#BEAMKV      : 20
#SIGNALTYPE  : EDS
#ELEVANGLE   : 35
#AZIMANGLE   : 0
#LIVETIME    : 239.858
#REALTIME    : 257.051
#PROBECUR    : 1.02609
#TAUWIND     : 0
#TDEADLYR    : 0
#TACTLYR     : 0.045
#TALWIND     : 0.025
#CHOFFSET    : 0.0
#XLABEL      : Energy (eV)
#YLABEL      : Counts
#XPOSITION   : -4.06911
#YPOSITION   : -1.14413
#ZPOSITION   : 31.0351
#EDSDET      : SD
##SPECIMEN   : SPI MM2 SPI Pollucite[0][all]
##D2STDCMP   : SPI Pollucite,(Li:0.05),(O:35.94),(Na:1.5),(Al:9.06),(Si:22.2),(K:0.05),(Rb:0.17),(Cs:32.3)
##DET_HASH   : 12273538-fd48-a23f-0a19-f1e6fa85caef
##CALIB_HASH : 6abaa72c-aa41-8738-0be9-f592914732f3
##WORKING    : 15.0 mm
##DET_NAME   : EDAX All
##DET_MODE   : MediumLE
#SPECTRUM    :
22,
242,
11610,
7649,
64768,
5011,
3480,
5658,
4035,
4344,
7925,
23186,
44350,
22237,
3696,
3588,
4016,
3659,
4177,
3780,
3650,
3821,
3428,
3576,
3433,
3341,
3193,
4830,
3245,
3254,
13587,
28246,
3451,
24411,
6606,
8201,
3458,
2642,
4366,
2471,
2774,
2016,
1814,
1788,
1693,
1663,
1815,
1622,
1501,
1511,
1556,
1411,
1386,
1411,
1343,
1288,
1230,
1239,
1135,
1117,
1067,
1048,
1083,
1023,
945,
922,
925,
892,
838,
850,
834,
790,
765,
750,
728,
702,
684,
615,
618,
568,
579,
571,
557,
479,
491,
517,
493,
428,
423,
368,
427,
404,
356,
385,
374,
354,
298,
300,
307,
267,
273,
277,
231,
239,
215,
195,
187,
158,
152,
163,
147,
143,
134,
147,
125,
139,
117,
86,
110,
105,
88,
57,
80,
67,
56,
47,
50,
45,
40,
32,
38,
30,
26,
23,
25,
20,
19,
9,
9,
13,
5,
4,
2,
1,
4,
1,
1,
0,
0,
0,
0,
1,
1,
1,
0,
0,
0,
0,
0,
1,
1,
0,
0,
0,
0,
2,
0,
0,
1,
0,
0,
0,
0,
0,
0,
0,
0,
0,
0,
0,
0,
0,
0,
0,
0,
0,
0,
0,
0,
0,
0,
1,
1,
0,
0,
0,
0,
0,
0,
0,
0,
0,
0,
0,
0,
0,
0,
0,
0,
0,
0,
0,
0,
0,
0,
0,
0,
0,
0,
0,
0,
0,
0,
0,
0,
0,
0,
0,
0,
0,
0,
0,
0,
0,
0,
0,
0,
0,
0,
0,
0,
0,
0,
0,
0,
0,
0,
0,
0,
0,
0,
0,
0,
0,
0,
0,
0,
0,
0,
0,
0,
0,
0,
0,
0,
0,
0,
0,
0,
0,
0,
0,
0,
0,
0,
0,
0,
0,
0,
0,
0,
0,
0,
0,
0,
0,
0,
0,
0,
0,
0,
0,
0,
0,
#ENDOFDATA   :

File: SPI MM2 SPI Pollucite[2][4].msa
#FORMAT      : EMSA/MAS Spectral Data File
#VERSION     : 1.0
#TITLE       : SPI MM2 SPI Pollucite[2][all]
#DATE        : 13-MAR-2025
#TIME        : 11:02
#OWNER       : Unknown
#NPOINTS     : 4096
#NCOLUMNS    : 1
#XUNITS      : eV
#YUNITS      : counts
#DATATYPE    : Y
#XPERCHAN    : 9.99778
#OFFSET      : 1.69135
#BEAMKV      : 20
#SIGNALTYPE  : EDS
#ELEVANGLE   : 35
#AZIMANGLE   : 0
#LIVETIME    : 239.765
#REALTIME    : 256.941
#PROBECUR    : 1.02609
#TAUWIND     : 0
#TDEADLYR    : 0
#TACTLYR     : 0.045
#TALWIND     : 0.025
#CHOFFSET    : 0.0
#XLABEL      : Energy (eV)
#YLABEL      : Counts
#XPOSITION   : -4.05209
#YPOSITION   : -1.14403
#ZPOSITION   : 31.0351
#EDSDET      : SD
##SPECIMEN   : SPI MM2 SPI Pollucite[2][all]
##D2STDCMP   : SPI Pollucite,(Li:0.05),(O:35.94),(Na:1.5),(Al:9.06),(Si:22.2),(K:0.05),(Rb:0.17),(Cs:32.3)
##DET_HASH   : 12273538-fd48-a23f-0a19-f1e6fa85caef
##CALIB_HASH : 6abaa72c-aa41-8738-0be9-f592914732f3
##WORKING    : 15.0 mm
##DET_NAME   : EDAX All
##DET_MODE   : MediumLE
#SPECTRUM    :
23,
289,
11573,
7833,
64335,
4910,
3465,
5736,
3984,
4285,
8003,
22777,
44882,
22056,
3716,
3621,
4033,
3656,
4074,
3679,
3721,
3631,
3547,
3650,
3406,
3328,
3231,
4814,
3240,
3208,
13551,
28692,
3496,
24617,
6623,
8178,
3413,
2636,
4383,
2553,
2689,
2044,
1708,
1775,
1617,
1733,
1766,
1558,
1525,
1491,
1454,
1456,
1318,
1410,
1296,
1287,
1179,
1182,
1231,
1182,
1095,
1155,
1066,
1045,
1017,
1000,
927,
928,
873,
836,
819,
791,
804,
719,
747,
662,
720,
663,
637,
630,
612,
554,
559,
542,
499,
514,
486,
452,
422,
422,
349,
395,
358,
380,
344,
314,
340,
303,
274,
293,
242,
251,
270,
185,
228,
183,
193,
185,
152,
174,
163,
142,
140,
116,
123,
114,
132,
98,
101,
82,
87,
89,
72,
65,
63,
56,
52,
48,
40,
37,
38,
34,
31,
18,
17,
14,
26,
13,
16,
8,
4,
4,
5,
1,
0,
0,
0,
0,
1,
0,
1,
2,
0,
0,
0,
0,
0,
0,
0,
0,
0,
0,
0,
1,
0,
0,
0,
0,
0,
1,
0,
0,
0,
0,
1,
0,
0,
1,
0,
0,
0,
0,
0,
0,
0,
0,
0,
0,
0,
0,
0,
0,
0,
0,
0,
0,
0,
0,
0,
0,
0,
1,
0,
1,
0,
0,
0,
0,
0,
0,
0,
0,
0,
0,
0,
0,
0,
0,
0,
0,
0,
0,
0,
0,
0,
0,
0,
0,
0,
0,
0,
0,
0,
0,
0,
0,
0,
0,
0,
0,
0,
0,
0,
0,
0,
0,
0,
0,
0,
0,
0,
0,
0,
0,
0,
0,
0,
0,
0,
0,
0,
0,
0,
0,
0,
0,
0,
0,
0,
0,
0,
0,
0,
0,
0,
0,
0,
0,
0,
0,
0,
0,
0,
0,
0,
0,
0,
0,
0,
0,
0,
0,
0,
0,
#ENDOFDATA   :

File: SPI MM2 SPI Pollucite[3][4].msa
#FORMAT      : EMSA/MAS Spectral Data File
#VERSION     : 1.0
#TITLE       : SPI MM2 SPI Pollucite[3][all]
#DATE        : 13-MAR-2025
#TIME        : 11:03
#OWNER       : Unknown
#NPOINTS     : 4096
#NCOLUMNS    : 1
#XUNITS      : eV
#YUNITS      : counts
#DATATYPE    : Y
#XPERCHAN    : 9.99778
#OFFSET      : 1.69135
#BEAMKV      : 20
#SIGNALTYPE  : EDS
#ELEVANGLE   : 35
#AZIMANGLE   : 0
#LIVETIME    : 239.744
#REALTIME    : 256.945
#PROBECUR    : 1.02609
#TAUWIND     : 0
#TDEADLYR    : 0
#TACTLYR     : 0.045
#TALWIND     : 0.025
#CHOFFSET    : 0.0
#XLABEL      : Energy (eV)
#YLABEL      : Counts
#XPOSITION   : -4.01093
#YPOSITION   : -1.16934
#ZPOSITION   : 31.0351
#EDSDET      : SD
##SPECIMEN   : SPI MM2 SPI Pollucite[3][all]
##D2STDCMP   : SPI Pollucite,(Li:0.05),(O:35.94),(Na:1.5),(Al:9.06),(Si:22.2),(K:0.05),(Rb:0.17),(Cs:32.3)
##DET_HASH   : 12273538-fd48-a23f-0a19-f1e6fa85caef
##CALIB_HASH : 6abaa72c-aa41-8738-0be9-f592914732f3
##WORKING    : 15.0 mm
##DET_NAME   : EDAX All
##DET_MODE   : MediumLE
#SPECTRUM    :
22,
267,
11465,
7735,
64750,
5010,
3408,
5740,
4019,
4341,
8045,
23319,
45276,
22510,
3732,
3701,
4008,
3752,
4163,
3666,
3608,
3678,
3553,
3667,
3527,
3369,
3158,
4841,
3162,
3153,
13505,
28340,
3419,
24568,
6555,
8287,
3578,
2679,
4256,
2437,
2727,
2029,
1835,
1855,
1654,
1749,
1789,
1513,
1591,
1522,
1493,
1474,
1394,
1465,
1303,
1279,
1260,
1247,
1112,
1120,
1173,
1055,
1043,
994,
1042,
983,
941,
926,
867,
881,
818,
782,
718,
771,
694,
744,
663,
687,
613,
611,
625,
565,
555,
523,
532,
485,
480,
481,
429,
458,
377,
364,
363,
357,
336,
316,
331,
312,
285,
258,
256,
254,
223,
218,
222,
190,
196,
199,
153,
151,
140,
129,
137,
106,
102,
106,
108,
92,
87,
78,
81,
78,
60,
91,
63,
52,
63,
57,
47,
43,
23,
37,
34,
25,
29,
14,
20,
9,
10,
12,
7,
5,
3,
0,
1,
0,
2,
0,
1,
0,
1,
0,
0,
0,
0,
0,
0,
0,
0,
0,
0,
0,
0,
0,
0,
0,
0,
0,
0,
0,
0,
0,
1,
0,
0,
0,
0,
0,
0,
0,
0,
0,
0,
0,
0,
0,
0,
0,
0,
0,
0,
0,
0,
0,
0,
0,
0,
0,
0,
0,
0,
0,
0,
0,
0,
0,
0,
0,
0,
0,
0,
0,
0,
0,
0,
0,
0,
0,
0,
0,
0,
0,
0,
0,
0,
0,
0,
0,
0,
0,
0,
0,
0,
0,
0,
0,
0,
0,
0,
0,
0,
0,
0,
0,
0,
0,
0,
0,
0,
0,
0,
0,
0,
0,
0,
0,
0,
0,
0,
0,
0,
0,
0,
0,
0,
0,
0,
0,
0,
0,
0,
0,
0,
0,
0,
0,
0,
0,
0,
0,
0,
0,
0,
0,
0,
0,
0,
0,
0,
0,
0,
0,
0,
0,
#ENDOFDATA   :

File: SPI MM2 SPI Pollucite[4][4].msa
#FORMAT      : EMSA/MAS Spectral Data File
#VERSION     : 1.0
#TITLE       : SPI MM2 SPI Pollucite[4][all]
#DATE        : 13-MAR-2025
#TIME        : 11:04
#OWNER       : Unknown
#NPOINTS     : 4096
#NCOLUMNS    : 1
#XUNITS      : eV
#YUNITS      : counts
#DATATYPE    : Y
#XPERCHAN    : 9.99778
#OFFSET      : 1.69135
#BEAMKV      : 20
#SIGNALTYPE  : EDS
#ELEVANGLE   : 35
#AZIMANGLE   : 0
#LIVETIME    : 239.454
#REALTIME    : 256.554
#PROBECUR    : 1.02609
#TAUWIND     : 0
#TDEADLYR    : 0
#TACTLYR     : 0.045
#TALWIND     : 0.025
#CHOFFSET    : 0.0
#XLABEL      : Energy (eV)
#YLABEL      : Counts
#XPOSITION   : -4.09173
#YPOSITION   : -1.10824
#ZPOSITION   : 31.0351
#EDSDET      : SD
##SPECIMEN   : SPI MM2 SPI Pollucite[4][all]
##D2STDCMP   : SPI Pollucite,(Li:0.05),(O:35.94),(Na:1.5),(Al:9.06),(Si:22.2),(K:0.05),(Rb:0.17),(Cs:32.3)
##DET_HASH   : 12273538-fd48-a23f-0a19-f1e6fa85caef
##CALIB_HASH : 6abaa72c-aa41-8738-0be9-f592914732f3
##WORKING    : 15.0 mm
##DET_NAME   : EDAX All
##DET_MODE   : MediumLE
#SPECTRUM    :
26,
261,
11089,
7634,
63594,
4944,
3383,
5657,
4024,
4310,
8045,
22547,
44917,
22229,
3714,
3543,
3955,
3717,
4029,
3749,
3610,
3578,
3469,
3630,
3525,
3438,
3080,
4681,
3225,
3222,
13433,
28563,
3450,
24698,
6709,
8230,
3381,
2736,
4326,
2453,
2710,
2016,
1781,
1832,
1736,
1719,
1860,
1602,
1479,
1407,
1486,
1363,
1391,
1404,
1386,
1187,
1197,
1219,
1189,
1198,
1113,
1081,
1031,
1038,
1030,
993,
967,
894,
865,
872,
804,
860,
780,
734,
709,
742,
715,
668,
663,
616,
602,
557,
551,
527,
485,
464,
493,
452,
423,
424,
422,
399,
353,
332,
320,
353,
302,
298,
274,
269,
266,
256,
246,
205,
222,
223,
201,
176,
161,
165,
134,
148,
143,
122,
135,
107,
85,
118,
97,
90,
85,
67,
66,
62,
58,
55,
46,
34,
47,
28,
31,
41,
30,
24,
27,
20,
20,
13,
14,
5,
7,
4,
2,
0,
1,
1,
0,
1,
1,
1,
0,
0,
0,
0,
0,
0,
0,
0,
0,
0,
0,
0,
0,
2,
0,
0,
0,
0,
0,
0,
0,
0,
0,
0,
0,
0,
0,
0,
0,
0,
0,
0,
1,
0,
0,
0,
0,
0,
0,
0,
0,
0,
0,
0,
0,
0,
0,
0,
0,
0,
0,
0,
0,
0,
0,
0,
0,
0,
0,
0,
0,
0,
0,
0,
0,
0,
0,
0,
0,
0,
0,
0,
0,
0,
0,
0,
0,
0,
0,
0,
0,
0,
0,
0,
1,
0,
0,
0,
0,
0,
0,
0,
0,
0,
0,
0,
0,
0,
0,
0,
0,
0,
0,
0,
0,
0,
0,
0,
0,
0,
0,
0,
0,
0,
0,
0,
0,
0,
0,
0,
0,
0,
0,
0,
0,
0,
0,
0,
0,
0,
0,
0,
0,
0,
0,
0,
0,
0,
0,
0,
0,
0,
0,
0,
#ENDOFDATA   :

File: SPI MM2 SPI Pollucite[5][4].msa
#FORMAT      : EMSA/MAS Spectral Data File
#VERSION     : 1.0
#TITLE       : SPI MM2 SPI Pollucite[5][all]
#DATE        : 13-MAR-2025
#TIME        : 11:05
#OWNER       : Unknown
#NPOINTS     : 4096
#NCOLUMNS    : 1
#XUNITS      : eV
#YUNITS      : counts
#DATATYPE    : Y
#XPERCHAN    : 9.99778
#OFFSET      : 1.69135
#BEAMKV      : 20
#SIGNALTYPE  : EDS
#ELEVANGLE   : 35
#AZIMANGLE   : 0
#LIVETIME    : 239.835
#REALTIME    : 257
#PROBECUR    : 1.02609
#TAUWIND     : 0
#TDEADLYR    : 0
#TACTLYR     : 0.045
#TALWIND     : 0.025
#CHOFFSET    : 0.0
#XLABEL      : Energy (eV)
#YLABEL      : Counts
#XPOSITION   : -4.14169
#YPOSITION   : -1.2004
#ZPOSITION   : 31.0351
#EDSDET      : SD
##SPECIMEN   : SPI MM2 SPI Pollucite[5][all]
##D2STDCMP   : SPI Pollucite,(Li:0.05),(O:35.94),(Na:1.5),(Al:9.06),(Si:22.2),(K:0.05),(Rb:0.17),(Cs:32.3)
##DET_HASH   : 12273538-fd48-a23f-0a19-f1e6fa85caef
##CALIB_HASH : 6abaa72c-aa41-8738-0be9-f592914732f3
##WORKING    : 15.0 mm
##DET_NAME   : EDAX All
##DET_MODE   : MediumLE
#SPECTRUM    :
21,
250,
11353,
7659,
63986,
4941,
3436,
5613,
4009,
4249,
8074,
23048,
45292,
22576,
3740,
3632,
3939,
3689,
4008,
3704,
3715,
3710,
3517,
3593,
3476,
3463,
3204,
4706,
3160,
3167,
13363,
28703,
3435,
24527,
6610,
8188,
3556,
2736,
4420,
2418,
2552,
1961,
1767,
1824,
1708,
1794,
1796,
1626,
1502,
1488,
1447,
1381,
1353,
1353,
1338,
1309,
1227,
1302,
1210,
1146,
1141,
1052,
1073,
1013,
948,
992,
935,
894,
911,
869,
821,
807,
709,
770,
734,
726,
676,
649,
638,
597,
616,
572,
615,
505,
519,
509,
492,
446,
470,
441,
395,
392,
398,
373,
356,
372,
290,
292,
248,
266,
260,
250,
247,
228,
209,
176,
174,
208,
152,
168,
141,
166,
146,
120,
154,
86,
103,
125,
102,
98,
84,
88,
67,
71,
63,
58,
51,
33,
55,
24,
42,
24,
28,
24,
26,
19,
14,
18,
7,
7,
8,
2,
1,
2,
1,
0,
2,
0,
1,
1,
2,
0,
0,
1,
0,
0,
1,
0,
0,
0,
1,
0,
0,
0,
1,
0,
0,
0,
0,
0,
0,
0,
0,
0,
0,
0,
0,
0,
0,
1,
0,
0,
1,
0,
0,
0,
0,
0,
0,
0,
0,
0,
0,
0,
0,
0,
0,
0,
0,
0,
0,
0,
0,
0,
0,
0,
0,
0,
0,
0,
0,
0,
0,
0,
0,
0,
0,
0,
0,
0,
0,
0,
0,
0,
0,
0,
0,
0,
0,
0,
0,
0,
0,
0,
0,
0,
0,
0,
0,
0,
0,
0,
0,
0,
0,
0,
0,
0,
0,
0,
0,
0,
0,
0,
0,
0,
0,
0,
0,
0,
0,
0,
0,
0,
0,
0,
0,
0,
0,
0,
0,
0,
0,
0,
0,
0,
0,
0,
0,
0,
0,
0,
0,
0,
0,
0,
0,
0,
0,
0,
0,
0,
0,
0,
#ENDOFDATA   :

File: SPI MM2 SPI Pollucite[6][4].msa
#FORMAT      : EMSA/MAS Spectral Data File
#VERSION     : 1.0
#TITLE       : SPI MM2 SPI Pollucite[6][all]
#DATE        : 13-MAR-2025
#TIME        : 11:06
#OWNER       : Unknown
#NPOINTS     : 4096
#NCOLUMNS    : 1
#XUNITS      : eV
#YUNITS      : counts
#DATATYPE    : Y
#XPERCHAN    : 9.99778
#OFFSET      : 1.69135
#BEAMKV      : 20
#SIGNALTYPE  : EDS
#ELEVANGLE   : 35
#AZIMANGLE   : 0
#LIVETIME    : 239.497
#REALTIME    : 256.752
#PROBECUR    : 1.02609
#TAUWIND     : 0
#TDEADLYR    : 0
#TACTLYR     : 0.045
#TALWIND     : 0.025
#CHOFFSET    : 0.0
#XLABEL      : Energy (eV)
#YLABEL      : Counts
#XPOSITION   : -3.9987
#YPOSITION   : -1.16055
#ZPOSITION   : 31.0351
#EDSDET      : SD
##SPECIMEN   : SPI MM2 SPI Pollucite[6][all]
##D2STDCMP   : SPI Pollucite,(Li:0.05),(O:35.94),(Na:1.5),(Al:9.06),(Si:22.2),(K:0.05),(Rb:0.17),(Cs:32.3)
##DET_HASH   : 12273538-fd48-a23f-0a19-f1e6fa85caef
##CALIB_HASH : 6abaa72c-aa41-8738-0be9-f592914732f3
##WORKING    : 15.0 mm
##DET_NAME   : EDAX All
##DET_MODE   : MediumLE
#SPECTRUM    :
30,
266,
11550,
7637,
65525,
4893,
3563,
5640,
4084,
4372,
8178,
23307,
45919,
22608,
3740,
3715,
4044,
3701,
3996,
3645,
3743,
3811,
3575,
3625,
3415,
3421,
3238,
4688,
3131,
3152,
13505,
28352,
3443,
24094,
6675,
8033,
3516,
2674,
4411,
2563,
2746,
1957,
1822,
1793,
1609,
1730,
1825,
1560,
1583,
1565,
1428,
1428,
1398,
1412,
1343,
1179,
1201,
1238,
1160,
1172,
1118,
1066,
1083,
1034,
968,
976,
951,
918,
860,
830,
849,
786,
784,
800,
696,
701,
652,
659,
668,
635,
632,
599,
528,
474,
517,
505,
462,
460,
418,
427,
395,
396,
355,
372,
299,
331,
282,
321,
268,
242,
261,
228,
210,
211,
226,
186,
193,
170,
169,
173,
159,
152,
134,
132,
132,
104,
120,
91,
102,
67,
80,
78,
69,
66,
54,
42,
48,
55,
39,
48,
34,
36,
25,
16,
20,
24,
21,
9,
13,
7,
7,
4,
3,
2,
0,
0,
1,
0,
0,
0,
0,
0,
0,
0,
1,
0,
2,
0,
0,
0,
0,
0,
0,
0,
0,
1,
0,
0,
0,
1,
0,
0,
0,
0,
0,
0,
0,
0,
0,
0,
0,
1,
0,
0,
0,
0,
0,
0,
0,
0,
0,
0,
0,
0,
0,
0,
0,
0,
0,
0,
0,
0,
0,
0,
0,
0,
0,
0,
0,
0,
0,
0,
0,
0,
0,
0,
0,
1,
0,
0,
0,
0,
0,
0,
0,
0,
0,
0,
0,
0,
0,
0,
0,
0,
0,
0,
0,
0,
0,
0,
0,
0,
0,
0,
0,
0,
0,
0,
0,
0,
0,
0,
0,
0,
0,
0,
0,
0,
0,
0,
0,
0,
0,
0,
0,
0,
0,
0,
0,
0,
0,
0,
0,
0,
0,
0,
0,
0,
0,
0,
0,
0,
0,
0,
0,
0,
0,
0,
0,
0,
0,
0,
0,
0,
#ENDOFDATA   :

File: SPI MM2 SPI Pollucite[7][4].msa
#FORMAT      : EMSA/MAS Spectral Data File
#VERSION     : 1.0
#TITLE       : SPI MM2 SPI Pollucite[7][all]
#DATE        : 13-MAR-2025
#TIME        : 11:07
#OWNER       : Unknown
#NPOINTS     : 4096
#NCOLUMNS    : 1
#XUNITS      : eV
#YUNITS      : counts
#DATATYPE    : Y
#XPERCHAN    : 9.99778
#OFFSET      : 1.69135
#BEAMKV      : 20
#SIGNALTYPE  : EDS
#ELEVANGLE   : 35
#AZIMANGLE   : 0
#LIVETIME    : 239.72
#REALTIME    : 256.878
#PROBECUR    : 1.02609
#TAUWIND     : 0
#TDEADLYR    : 0
#TACTLYR     : 0.045
#TALWIND     : 0.025
#CHOFFSET    : 0.0
#XLABEL      : Energy (eV)
#YLABEL      : Counts
#XPOSITION   : -4.05832
#YPOSITION   : -1.07251
#ZPOSITION   : 31.0351
#EDSDET      : SD
##SPECIMEN   : SPI MM2 SPI Pollucite[7][all]
##D2STDCMP   : SPI Pollucite,(Li:0.05),(O:35.94),(Na:1.5),(Al:9.06),(Si:22.2),(K:0.05),(Rb:0.17),(Cs:32.3)
##DET_HASH   : 12273538-fd48-a23f-0a19-f1e6fa85caef
##CALIB_HASH : 6abaa72c-aa41-8738-0be9-f592914732f3
##WORKING    : 15.0 mm
##DET_NAME   : EDAX All
##DET_MODE   : MediumLE
#SPECTRUM    :
23,
253,
11269,
7716,
63883,
4912,
3320,
5690,
4016,
4229,
7951,
23255,
45437,
22563,
3702,
3706,
3960,
3837,
4150,
3679,
3633,
3608,
3482,
3644,
3503,
3355,
3367,
4734,
3138,
3208,
13403,
28613,
3428,
24403,
6799,
8007,
3563,
2826,
4357,
2373,
2692,
2016,
1807,
1794,
1651,
1709,
1860,
1616,
1634,
1457,
1436,
1456,
1395,
1437,
1384,
1291,
1176,
1199,
1239,
1151,
1122,
1149,
1055,
1037,
997,
979,
951,
850,
892,
857,
787,
805,
786,
749,
700,
727,
680,
700,
649,
644,
563,
567,
570,
496,
528,
491,
517,
440,
440,
447,
433,
374,
368,
351,
328,
354,
300,
298,
292,
256,
290,
241,
234,
218,
187,
182,
209,
170,
179,
170,
141,
162,
130,
142,
131,
105,
125,
88,
92,
96,
78,
64,
65,
71,
61,
61,
47,
48,
43,
38,
31,
34,
26,
23,
15,
18,
13,
10,
16,
4,
6,
5,
1,
1,
1,
1,
0,
0,
2,
1,
0,
1,
2,
0,
0,
0,
0,
1,
0,
0,
0,
0,
0,
0,
0,
0,
0,
1,
0,
0,
0,
0,
0,
0,
0,
0,
0,
0,
0,
0,
0,
0,
0,
0,
0,
0,
0,
0,
0,
0,
0,
0,
0,
0,
0,
0,
0,
0,
0,
0,
1,
0,
0,
0,
0,
0,
0,
0,
0,
0,
0,
0,
0,
0,
0,
0,
0,
0,
0,
0,
0,
0,
0,
0,
0,
0,
0,
0,
0,
0,
0,
0,
0,
0,
0,
0,
0,
0,
0,
0,
0,
0,
0,
0,
0,
0,
0,
0,
0,
0,
0,
0,
0,
0,
0,
0,
0,
0,
0,
0,
0,
0,
0,
0,
0,
0,
0,
0,
0,
0,
0,
0,
0,
0,
0,
0,
0,
0,
0,
0,
0,
0,
0,
0,
0,
0,
0,
0,
0,
0,
0,
0,
0,
0,
#ENDOFDATA   :

File: SPI MM2 Stibnite[0][4].msa
#FORMAT      : EMSA/MAS Spectral Data File
#VERSION     : 1.0
#TITLE       : SPI MM2 Stibnite[0][all]
#DATE        : 13-MAR-2025
#TIME        : 13:16
#OWNER       : Unknown
#NPOINTS     : 4096
#NCOLUMNS    : 1
#XUNITS      : eV
#YUNITS      : counts
#DATATYPE    : Y
#XPERCHAN    : 9.99778
#OFFSET      : 1.69135
#BEAMKV      : 20
#SIGNALTYPE  : EDS
#ELEVANGLE   : 35
#AZIMANGLE   : 0
#LIVETIME    : 239.812
#REALTIME    : 263.259
#PROBECUR    : 1.0263
#TAUWIND     : 0
#TDEADLYR    : 0
#TACTLYR     : 0.045
#TALWIND     : 0.025
#CHOFFSET    : 0.0
#XLABEL      : Energy (eV)
#YLABEL      : Counts
#XPOSITION   : 1.56473
#YPOSITION   : 4.35401
#ZPOSITION   : 31.03511
#EDSDET      : SD
##SPECIMEN   : SPI MM2 Stibnite[0][all]
##DET_HASH   : 12273538-fd48-a23f-0a19-f1e6fa85caef
##CALIB_HASH : 6abaa72c-aa41-8738-0be9-f592914732f3
##WORKING    : 15.0 mm
##DET_NAME   : EDAX All
##DET_MODE   : MediumLE
#SPECTRUM    :
33,
2067,
15021,
16772,
9398,
5498,
4854,
4690,
5430,
5821,
6764,
7113,
7999,
9011,
7505,
8527,
60480,
48255,
11972,
5581,
5759,
5534,
5922,
9355,
5948,
17198,
105789,
28227,
39446,
17301,
7390,
10017,
4043,
6368,
3352,
3150,
3089,
3174,
3168,
3097,
3053,
2996,
3110,
2994,
2977,
2883,
3189,
2664,
2691,
2566,
2643,
2499,
2373,
2601,
2425,
2203,
2174,
2110,
2082,
2039,
1987,
2085,
1892,
1846,
1770,
1776,
1747,
1679,
1672,
1569,
1530,
1487,
1463,
1423,
1333,
1254,
1250,
1216,
1207,
1155,
1109,
1086,
1086,
979,
1022,
955,
953,
908,
816,
834,
786,
773,
781,
696,
685,
633,
608,
551,
571,
506,
484,
492,
467,
421,
419,
400,
408,
361,
351,
310,
316,
298,
278,
270,
245,
223,
233,
208,
197,
191,
211,
161,
160,
142,
157,
126,
119,
105,
94,
112,
88,
76,
77,
44,
51,
41,
41,
31,
25,
20,
14,
18,
7,
6,
3,
2,
3,
1,
0,
2,
0,
2,
1,
0,
2,
2,
1,
0,
0,
0,
0,
0,
2,
3,
0,
0,
0,
0,
0,
1,
0,
0,
2,
0,
0,
0,
1,
0,
0,
0,
0,
0,
0,
1,
0,
0,
0,
1,
1,
0,
0,
0,
1,
0,
1,
0,
0,
0,
1,
0,
0,
0,
0,
0,
0,
0,
0,
0,
0,
0,
0,
0,
0,
0,
0,
0,
0,
0,
0,
0,
0,
0,
0,
0,
0,
0,
0,
0,
0,
0,
0,
0,
0,
0,
0,
0,
0,
0,
0,
0,
0,
0,
0,
0,
0,
0,
0,
0,
0,
0,
0,
0,
0,
0,
0,
0,
0,
0,
0,
0,
0,
0,
0,
0,
0,
0,
0,
0,
0,
0,
0,
0,
0,
0,
0,
0,
0,
0,
0,
0,
0,
0,
0,
0,
0,
0,
0,
0,
0,
0,
0,
0,
0,
0,
#ENDOFDATA   :

File: SPI MM2 Stibnite[1][4].msa
#FORMAT      : EMSA/MAS Spectral Data File
#VERSION     : 1.0
#TITLE       : SPI MM2 Stibnite[1][all]
#DATE        : 13-MAR-2025
#TIME        : 13:17
#OWNER       : Unknown
#NPOINTS     : 4096
#NCOLUMNS    : 1
#XUNITS      : eV
#YUNITS      : counts
#DATATYPE    : Y
#XPERCHAN    : 9.99778
#OFFSET      : 1.69135
#BEAMKV      : 20
#SIGNALTYPE  : EDS
#ELEVANGLE   : 35
#AZIMANGLE   : 0
#LIVETIME    : 239.927
#REALTIME    : 263.398
#PROBECUR    : 1.0263
#TAUWIND     : 0
#TDEADLYR    : 0
#TACTLYR     : 0.045
#TALWIND     : 0.025
#CHOFFSET    : 0.0
#XLABEL      : Energy (eV)
#YLABEL      : Counts
#XPOSITION   : 1.52422
#YPOSITION   : 4.41016
#ZPOSITION   : 31.03511
#EDSDET      : SD
##SPECIMEN   : SPI MM2 Stibnite[1][all]
##DET_HASH   : 12273538-fd48-a23f-0a19-f1e6fa85caef
##CALIB_HASH : 6abaa72c-aa41-8738-0be9-f592914732f3
##WORKING    : 15.0 mm
##DET_NAME   : EDAX All
##DET_MODE   : MediumLE
#SPECTRUM    :
34,
2034,
16878,
16232,
9536,
5403,
4860,
4726,
5258,
6099,
6934,
7376,
7917,
8941,
7464,
8571,
60434,
48102,
11840,
5609,
5697,
5570,
5817,
9379,
6149,
17560,
105070,
27747,
39614,
17660,
7167,
10068,
4026,
6431,
3442,
3272,
3205,
3139,
3132,
3258,
3058,
3051,
3165,
3014,
3012,
3001,
3149,
2668,
2633,
2571,
2470,
2480,
2457,
2650,
2366,
2238,
2218,
2036,
2093,
2129,
1986,
1950,
1915,
1909,
1797,
1725,
1686,
1636,
1600,
1533,
1520,
1468,
1431,
1381,
1347,
1275,
1273,
1308,
1219,
1111,
1104,
1113,
1057,
1012,
1035,
958,
903,
884,
828,
845,
774,
758,
722,
723,
700,
606,
585,
564,
546,
544,
471,
518,
445,
412,
449,
387,
396,
396,
391,
362,
334,
305,
284,
281,
254,
236,
248,
199,
200,
190,
188,
178,
148,
141,
133,
123,
121,
101,
98,
69,
72,
66,
44,
54,
41,
40,
37,
19,
26,
19,
15,
15,
9,
3,
0,
4,
1,
2,
3,
1,
2,
1,
0,
2,
1,
1,
0,
1,
2,
2,
0,
0,
1,
2,
4,
2,
0,
0,
0,
0,
0,
1,
1,
0,
1,
0,
0,
1,
1,
0,
1,
2,
1,
0,
0,
0,
0,
0,
0,
0,
0,
0,
0,
0,
1,
0,
0,
0,
0,
0,
0,
0,
0,
0,
0,
0,
0,
0,
0,
1,
0,
1,
0,
0,
0,
0,
0,
0,
0,
0,
0,
0,
0,
0,
0,
0,
0,
0,
0,
0,
0,
0,
1,
0,
0,
0,
0,
0,
0,
0,
0,
0,
0,
0,
0,
0,
0,
0,
0,
0,
0,
0,
0,
0,
0,
0,
0,
0,
0,
0,
0,
0,
0,
0,
0,
0,
0,
0,
0,
0,
0,
0,
0,
0,
0,
0,
0,
0,
0,
0,
0,
0,
0,
0,
0,
0,
0,
0,
0,
0,
0,
0,
0,
0,
#ENDOFDATA   :

File: SPI MM2 Stibnite[2][4].msa
#FORMAT      : EMSA/MAS Spectral Data File
#VERSION     : 1.0
#TITLE       : SPI MM2 Stibnite[2][all]
#DATE        : 13-MAR-2025
#TIME        : 13:19
#OWNER       : Unknown
#NPOINTS     : 4096
#NCOLUMNS    : 1
#XUNITS      : eV
#YUNITS      : counts
#DATATYPE    : Y
#XPERCHAN    : 9.99778
#OFFSET      : 1.69135
#BEAMKV      : 20
#SIGNALTYPE  : EDS
#ELEVANGLE   : 35
#AZIMANGLE   : 0
#LIVETIME    : 239.846
#REALTIME    : 263.281
#PROBECUR    : 1.0263
#TAUWIND     : 0
#TDEADLYR    : 0
#TACTLYR     : 0.045
#TALWIND     : 0.025
#CHOFFSET    : 0.0
#XLABEL      : Energy (eV)
#YLABEL      : Counts
#XPOSITION   : 1.52695
#YPOSITION   : 4.36426
#ZPOSITION   : 31.03511
#EDSDET      : SD
##SPECIMEN   : SPI MM2 Stibnite[2][all]
##DET_HASH   : 12273538-fd48-a23f-0a19-f1e6fa85caef
##CALIB_HASH : 6abaa72c-aa41-8738-0be9-f592914732f3
##WORKING    : 15.0 mm
##DET_NAME   : EDAX All
##DET_MODE   : MediumLE
#SPECTRUM    :
24,
2043,
14865,
16706,
9452,
5372,
4780,
4692,
5217,
5878,
6738,
7302,
7915,
9061,
7471,
8456,
60589,
48513,
11948,
5615,
5683,
5716,
5788,
9224,
6106,
17270,
104989,
27595,
39088,
17481,
7186,
10321,
3935,
6351,
3321,
3189,
3257,
3044,
3145,
3158,
3036,
3082,
3129,
2927,
2901,
2962,
3167,
2679,
2610,
2617,
2503,
2482,
2428,
2550,
2415,
2244,
2179,
2168,
2154,
2030,
1959,
1880,
1821,
1895,
1836,
1742,
1719,
1669,
1640,
1569,
1521,
1519,
1464,
1379,
1350,
1348,
1243,
1255,
1198,
1147,
1118,
1065,
1104,
1020,
965,
940,
912,
835,
800,
831,
769,
735,
764,
702,
622,
618,
636,
538,
556,
543,
544,
471,
449,
443,
418,
445,
404,
412,
383,
322,
282,
309,
300,
247,
252,
280,
223,
209,
190,
186,
191,
166,
178,
141,
144,
139,
128,
116,
87,
80,
81,
68,
72,
72,
54,
49,
43,
42,
33,
20,
20,
12,
6,
1,
3,
1,
2,
0,
0,
0,
2,
3,
0,
0,
1,
1,
0,
0,
0,
2,
1,
0,
1,
0,
1,
0,
1,
0,
1,
0,
0,
1,
1,
1,
0,
1,
0,
1,
1,
0,
1,
0,
0,
1,
0,
0,
0,
0,
0,
0,
0,
0,
0,
1,
0,
1,
0,
0,
0,
0,
1,
1,
0,
1,
0,
0,
0,
0,
1,
0,
0,
0,
1,
0,
0,
0,
0,
0,
0,
0,
0,
0,
0,
0,
0,
0,
0,
0,
0,
0,
0,
0,
0,
0,
0,
0,
0,
0,
0,
0,
0,
0,
0,
0,
0,
0,
0,
0,
0,
0,
0,
0,
0,
0,
0,
0,
1,
0,
0,
0,
0,
0,
0,
0,
0,
0,
0,
0,
0,
0,
0,
0,
0,
0,
0,
0,
0,
0,
0,
0,
0,
0,
0,
0,
0,
0,
0,
0,
0,
0,
0,
0,
0,
0,
#ENDOFDATA   :

File: SPI MM2 Stibnite[3][4].msa
#FORMAT      : EMSA/MAS Spectral Data File
#VERSION     : 1.0
#TITLE       : SPI MM2 Stibnite[3][all]
#DATE        : 13-MAR-2025
#TIME        : 13:20
#OWNER       : Unknown
#NPOINTS     : 4096
#NCOLUMNS    : 1
#XUNITS      : eV
#YUNITS      : counts
#DATATYPE    : Y
#XPERCHAN    : 9.99778
#OFFSET      : 1.69135
#BEAMKV      : 20
#SIGNALTYPE  : EDS
#ELEVANGLE   : 35
#AZIMANGLE   : 0
#LIVETIME    : 239.886
#REALTIME    : 263.338
#PROBECUR    : 1.0263
#TAUWIND     : 0
#TDEADLYR    : 0
#TACTLYR     : 0.045
#TALWIND     : 0.025
#CHOFFSET    : 0.0
#XLABEL      : Energy (eV)
#YLABEL      : Counts
#XPOSITION   : 1.5989
#YPOSITION   : 4.38171
#ZPOSITION   : 31.03511
#EDSDET      : SD
##SPECIMEN   : SPI MM2 Stibnite[3][all]
##DET_HASH   : 12273538-fd48-a23f-0a19-f1e6fa85caef
##CALIB_HASH : 6abaa72c-aa41-8738-0be9-f592914732f3
##WORKING    : 15.0 mm
##DET_NAME   : EDAX All
##DET_MODE   : MediumLE
#SPECTRUM    :
29,
2064,
14747,
16951,
9461,
5458,
4825,
4583,
5259,
6042,
6645,
7395,
7773,
8935,
7508,
8477,
60467,
47907,
12154,
5618,
5531,
5528,
5744,
9531,
5974,
17532,
105219,
28217,
39162,
17344,
7252,
10205,
3959,
6410,
3323,
3156,
3152,
3089,
3120,
3167,
2989,
3001,
3165,
3131,
2929,
2905,
3193,
2794,
2640,
2534,
2531,
2441,
2426,
2503,
2411,
2291,
2239,
2171,
2042,
2125,
1965,
1922,
1894,
1876,
1798,
1720,
1757,
1619,
1650,
1559,
1505,
1455,
1397,
1405,
1363,
1354,
1201,
1242,
1169,
1215,
1124,
1063,
1063,
994,
970,
947,
850,
884,
870,
788,
813,
776,
708,
669,
725,
646,
601,
580,
536,
521,
513,
481,
482,
443,
456,
424,
393,
396,
364,
379,
306,
306,
326,
277,
267,
259,
207,
238,
215,
189,
177,
165,
169,
158,
139,
126,
127,
86,
84,
102,
62,
58,
58,
48,
63,
53,
45,
26,
17,
20,
29,
4,
6,
3,
2,
2,
1,
1,
1,
2,
2,
2,
2,
2,
1,
0,
1,
0,
1,
2,
0,
0,
1,
1,
0,
0,
1,
0,
1,
0,
0,
0,
0,
0,
0,
0,
0,
1,
1,
1,
1,
0,
0,
2,
1,
0,
0,
1,
0,
0,
0,
0,
0,
0,
1,
0,
0,
0,
0,
0,
0,
0,
0,
0,
0,
0,
0,
0,
0,
0,
0,
0,
0,
0,
0,
0,
0,
0,
0,
0,
0,
0,
0,
0,
0,
0,
0,
0,
0,
0,
0,
0,
1,
0,
0,
0,
0,
0,
0,
0,
0,
0,
0,
0,
0,
0,
0,
0,
0,
0,
0,
0,
0,
0,
0,
0,
0,
0,
0,
0,
0,
0,
0,
0,
0,
0,
0,
0,
0,
0,
0,
0,
0,
0,
0,
0,
0,
0,
0,
0,
0,
0,
0,
0,
0,
0,
0,
0,
0,
0,
0,
0,
0,
0,
#ENDOFDATA   :