Folder: spex_quant/N132962/Quantification/20 keV/MMM2 (part 5)

File: SPI MM2 Scheelite[4][4].msa
#FORMAT      : EMSA/MAS Spectral Data File
#VERSION     : 1.0
#TITLE       : SPI MM2 Scheelite[4][all]
#DATE        : 13-MAR-2025
#TIME        : 12:16
#OWNER       : Unknown
#NPOINTS     : 4096
#NCOLUMNS    : 1
#XUNITS      : eV
#YUNITS      : counts
#DATATYPE    : Y
#XPERCHAN    : 9.99778
#OFFSET      : 1.69135
#BEAMKV      : 20
#SIGNALTYPE  : EDS
#ELEVANGLE   : 35
#AZIMANGLE   : 0
#LIVETIME    : 239.94
#REALTIME    : 263.084
#PROBECUR    : 1.02616
#TAUWIND     : 0
#TDEADLYR    : 0
#TACTLYR     : 0.045
#TALWIND     : 0.025
#CHOFFSET    : 0.0
#XLABEL      : Energy (eV)
#YLABEL      : Counts
#XPOSITION   : -2.80104
#YPOSITION   : 1.94187
#ZPOSITION   : 31.03511
#EDSDET      : SD
##SPECIMEN   : SPI MM2 Scheelite[4][all]
##DET_HASH   : 12273538-fd48-a23f-0a19-f1e6fa85caef
##CALIB_HASH : 6abaa72c-aa41-8738-0be9-f592914732f3
##WORKING    : 15.0 mm
##DET_NAME   : EDAX All
##DET_MODE   : MediumLE
#SPECTRUM    :
39,
526,
17859,
4823,
20281,
5093,
6376,
6836,
7814,
8723,
21187,
10062,
21427,
181956,
7335,
6081,
5689,
5549,
4812,
4826,
4969,
4861,
4800,
5002,
4858,
5225,
37369,
15020,
6147,
9479,
4333,
4180,
4204,
4203,
4274,
4046,
4052,
4015,
3769,
3905,
3691,
3590,
3460,
3359,
3448,
3298,
3531,
3189,
3093,
3017,
2889,
2871,
3144,
3921,
2737,
2605,
2607,
2457,
2517,
6854,
27671,
4280,
2465,
2207,
2064,
1982,
1947,
2095,
3981,
10801,
4679,
6360,
2789,
1813,
1488,
1392,
1311,
1262,
1356,
1330,
2014,
2230,
1367,
1497,
1253,
1097,
1055,
962,
935,
934,
857,
798,
775,
809,
662,
710,
712,
640,
646,
606,
583,
554,
514,
476,
472,
428,
431,
424,
398,
372,
375,
332,
289,
307,
285,
250,
264,
233,
229,
227,
219,
184,
176,
176,
142,
123,
122,
127,
135,
107,
115,
99,
90,
81,
59,
47,
49,
36,
32,
23,
20,
20,
7,
4,
4,
0,
3,
4,
5,
4,
2,
1,
1,
1,
2,
2,
2,
2,
3,
3,
1,
0,
3,
3,
1,
0,
1,
1,
1,
3,
0,
0,
1,
2,
0,
1,
2,
1,
1,
1,
0,
1,
2,
0,
0,
0,
1,
2,
0,
0,
2,
1,
0,
2,
0,
0,
1,
0,
0,
0,
0,
0,
0,
0,
0,
0,
0,
1,
0,
0,
0,
0,
0,
0,
1,
0,
0,
0,
0,
0,
0,
0,
0,
0,
0,
0,
0,
0,
0,
0,
0,
0,
0,
0,
0,
0,
0,
0,
0,
0,
0,
0,
0,
0,
0,
0,
0,
0,
0,
0,
0,
0,
0,
0,
0,
0,
0,
0,
0,
0,
0,
0,
0,
0,
0,
0,
0,
0,
0,
0,
0,
0,
0,
0,
0,
0,
0,
0,
0,
0,
0,
0,
0,
0,
0,
0,
0,
0,
0,
0,
0,
0,
0,
0,
#ENDOFDATA   :

File: SPI MM2 Scheelite[5][4].msa
#FORMAT      : EMSA/MAS Spectral Data File
#VERSION     : 1.0
#TITLE       : SPI MM2 Scheelite[5][all]
#DATE        : 13-MAR-2025
#TIME        : 12:17
#OWNER       : Unknown
#NPOINTS     : 4096
#NCOLUMNS    : 1
#XUNITS      : eV
#YUNITS      : counts
#DATATYPE    : Y
#XPERCHAN    : 9.99778
#OFFSET      : 1.69135
#BEAMKV      : 20
#SIGNALTYPE  : EDS
#ELEVANGLE   : 35
#AZIMANGLE   : 0
#LIVETIME    : 240.025
#REALTIME    : 263.146
#PROBECUR    : 1.02616
#TAUWIND     : 0
#TDEADLYR    : 0
#TACTLYR     : 0.045
#TALWIND     : 0.025
#CHOFFSET    : 0.0
#XLABEL      : Energy (eV)
#YLABEL      : Counts
#XPOSITION   : -2.76649
#YPOSITION   : 1.98439
#ZPOSITION   : 31.03511
#EDSDET      : SD
##SPECIMEN   : SPI MM2 Scheelite[5][all]
##DET_HASH   : 12273538-fd48-a23f-0a19-f1e6fa85caef
##CALIB_HASH : 6abaa72c-aa41-8738-0be9-f592914732f3
##WORKING    : 15.0 mm
##DET_NAME   : EDAX All
##DET_MODE   : MediumLE
#SPECTRUM    :
28,
534,
17595,
4742,
19999,
5232,
6275,
6830,
7762,
8559,
21104,
9937,
21364,
180639,
7322,
6095,
5566,
5641,
4699,
4711,
4873,
4933,
4863,
4992,
4903,
5443,
37199,
15177,
6050,
9410,
4293,
4213,
4185,
4145,
4107,
3979,
3947,
3926,
3882,
3936,
3616,
3563,
3529,
3386,
3340,
3420,
3613,
3136,
3131,
2945,
2999,
2819,
3050,
3917,
2726,
2568,
2527,
2467,
2490,
6971,
27418,
4235,
2453,
2193,
2037,
2046,
1951,
1968,
4024,
10633,
4738,
6412,
2619,
1808,
1453,
1401,
1433,
1450,
1323,
1388,
2097,
2180,
1304,
1587,
1227,
1041,
1141,
977,
876,
875,
848,
802,
838,
687,
729,
740,
689,
666,
677,
619,
541,
577,
561,
490,
517,
483,
419,
425,
402,
372,
378,
345,
354,
304,
267,
290,
252,
263,
240,
229,
203,
187,
186,
167,
153,
150,
119,
125,
125,
118,
97,
77,
78,
71,
58,
58,
52,
38,
38,
28,
15,
17,
9,
4,
4,
1,
5,
3,
4,
1,
3,
2,
0,
2,
2,
3,
3,
1,
3,
1,
4,
1,
2,
3,
0,
2,
1,
2,
0,
2,
0,
0,
1,
0,
1,
1,
3,
1,
4,
1,
1,
2,
0,
0,
0,
0,
0,
0,
0,
0,
1,
1,
0,
0,
1,
2,
1,
1,
0,
1,
0,
0,
0,
0,
0,
0,
0,
1,
0,
0,
0,
0,
0,
0,
0,
0,
0,
0,
0,
0,
0,
0,
0,
0,
0,
0,
0,
0,
0,
0,
0,
0,
0,
0,
0,
0,
0,
0,
0,
0,
0,
0,
0,
0,
0,
0,
0,
0,
0,
0,
0,
0,
0,
0,
0,
0,
0,
0,
0,
0,
0,
0,
0,
0,
0,
0,
0,
0,
0,
0,
0,
0,
0,
0,
0,
0,
0,
0,
0,
0,
0,
0,
0,
0,
0,
0,
0,
0,
0,
0,
0,
0,
0,
0,
#ENDOFDATA   :

File: SPI MM2 Scheelite[6][4].msa
#FORMAT      : EMSA/MAS Spectral Data File
#VERSION     : 1.0
#TITLE       : SPI MM2 Scheelite[6][all]
#DATE        : 13-MAR-2025
#TIME        : 12:19
#OWNER       : Unknown
#NPOINTS     : 4096
#NCOLUMNS    : 1
#XUNITS      : eV
#YUNITS      : counts
#DATATYPE    : Y
#XPERCHAN    : 9.99778
#OFFSET      : 1.69135
#BEAMKV      : 20
#SIGNALTYPE  : EDS
#ELEVANGLE   : 35
#AZIMANGLE   : 0
#LIVETIME    : 239.8805
#REALTIME    : 262.96
#PROBECUR    : 1.02616
#TAUWIND     : 0
#TDEADLYR    : 0
#TACTLYR     : 0.045
#TALWIND     : 0.025
#CHOFFSET    : 0.0
#XLABEL      : Energy (eV)
#YLABEL      : Counts
#XPOSITION   : -2.75227
#YPOSITION   : 2.01027
#ZPOSITION   : 31.03511
#EDSDET      : SD
##SPECIMEN   : SPI MM2 Scheelite[6][all]
##DET_HASH   : 12273538-fd48-a23f-0a19-f1e6fa85caef
##CALIB_HASH : 6abaa72c-aa41-8738-0be9-f592914732f3
##WORKING    : 15.0 mm
##DET_NAME   : EDAX All
##DET_MODE   : MediumLE
#SPECTRUM    :
34,
546,
17597,
4615,
19954,
5096,
6092,
6760,
7674,
8715,
21098,
9880,
21350,
180781,
7310,
6150,
5483,
5620,
4867,
4693,
4863,
4814,
4925,
4945,
4840,
5293,
37700,
15108,
6094,
9510,
4311,
4369,
4113,
4236,
4168,
4083,
4033,
3977,
3845,
3933,
3816,
3450,
3541,
3404,
3326,
3364,
3544,
3083,
3083,
3004,
3070,
2782,
3198,
3907,
2819,
2651,
2569,
2436,
2449,
6958,
27338,
4109,
2403,
2244,
2040,
1997,
1951,
2047,
3900,
10994,
4769,
6333,
2710,
1766,
1537,
1389,
1362,
1378,
1326,
1323,
2121,
2144,
1339,
1443,
1289,
1081,
1049,
949,
933,
878,
847,
794,
758,
779,
731,
726,
735,
648,
645,
554,
528,
569,
564,
518,
433,
445,
441,
439,
412,
379,
366,
350,
328,
298,
299,
277,
244,
228,
243,
226,
210,
200,
199,
171,
171,
161,
131,
132,
111,
114,
95,
101,
84,
78,
54,
70,
46,
35,
37,
28,
22,
20,
15,
3,
1,
2,
0,
2,
0,
1,
1,
3,
2,
2,
0,
1,
0,
1,
0,
3,
1,
1,
1,
1,
1,
2,
1,
0,
1,
1,
1,
1,
0,
0,
1,
0,
0,
1,
0,
0,
1,
0,
3,
0,
1,
1,
0,
0,
0,
0,
2,
0,
0,
2,
1,
0,
1,
0,
0,
0,
0,
0,
0,
0,
0,
0,
0,
1,
0,
0,
0,
0,
0,
0,
0,
0,
0,
0,
0,
0,
0,
0,
0,
0,
0,
0,
0,
0,
0,
0,
0,
0,
0,
0,
0,
0,
0,
0,
0,
0,
0,
0,
0,
0,
0,
0,
0,
0,
0,
0,
0,
0,
0,
0,
0,
0,
0,
0,
0,
0,
0,
0,
0,
0,
0,
0,
0,
0,
0,
0,
0,
0,
0,
0,
0,
0,
0,
0,
0,
0,
0,
0,
0,
0,
0,
0,
0,
0,
0,
0,
0,
0,
0,
0,
#ENDOFDATA   :

File: SPI MM2 Scheelite[7][4].msa
#FORMAT      : EMSA/MAS Spectral Data File
#VERSION     : 1.0
#TITLE       : SPI MM2 Scheelite[7][all]
#DATE        : 13-MAR-2025
#TIME        : 12:20
#OWNER       : Unknown
#NPOINTS     : 4096
#NCOLUMNS    : 1
#XUNITS      : eV
#YUNITS      : counts
#DATATYPE    : Y
#XPERCHAN    : 9.99778
#OFFSET      : 1.69135
#BEAMKV      : 20
#SIGNALTYPE  : EDS
#ELEVANGLE   : 35
#AZIMANGLE   : 0
#LIVETIME    : 240.193
#REALTIME    : 263.3399
#PROBECUR    : 1.02616
#TAUWIND     : 0
#TDEADLYR    : 0
#TACTLYR     : 0.045
#TALWIND     : 0.025
#CHOFFSET    : 0.0
#XLABEL      : Energy (eV)
#YLABEL      : Counts
#XPOSITION   : -2.77414
#YPOSITION   : 1.97129
#ZPOSITION   : 31.03511
#EDSDET      : SD
##SPECIMEN   : SPI MM2 Scheelite[7][all]
##DET_HASH   : 12273538-fd48-a23f-0a19-f1e6fa85caef
##CALIB_HASH : 6abaa72c-aa41-8738-0be9-f592914732f3
##WORKING    : 15.0 mm
##DET_NAME   : EDAX All
##DET_MODE   : MediumLE
#SPECTRUM    :
29,
511,
17848,
4644,
19976,
5086,
6373,
6834,
7638,
8738,
20866,
10062,
21554,
180641,
7180,
6169,
5519,
5517,
4784,
4757,
4910,
4796,
4854,
5000,
4941,
5229,
37144,
15058,
6092,
9656,
4338,
4276,
4301,
4057,
4134,
3900,
4080,
3826,
3771,
3837,
3643,
3595,
3570,
3405,
3288,
3357,
3552,
3171,
3002,
3041,
2906,
2865,
3164,
3927,
2764,
2529,
2580,
2524,
2456,
6868,
27374,
4334,
2397,
2215,
1996,
1947,
1980,
1988,
3878,
10662,
4784,
6331,
2675,
1744,
1424,
1405,
1451,
1370,
1373,
1342,
2031,
2220,
1283,
1537,
1218,
1005,
1034,
943,
920,
898,
892,
782,
800,
680,
700,
722,
678,
671,
635,
628,
567,
542,
488,
506,
480,
447,
408,
445,
425,
389,
335,
332,
295,
334,
268,
290,
265,
269,
236,
212,
209,
222,
175,
173,
155,
133,
116,
151,
113,
124,
81,
85,
75,
70,
65,
57,
45,
31,
46,
30,
26,
15,
7,
2,
4,
4,
3,
2,
3,
6,
5,
2,
2,
2,
3,
2,
0,
1,
0,
1,
1,
1,
1,
1,
2,
2,
2,
1,
2,
2,
0,
1,
0,
1,
0,
1,
2,
1,
0,
0,
0,
1,
2,
0,
1,
2,
1,
0,
0,
0,
0,
1,
0,
0,
0,
1,
1,
0,
1,
0,
0,
1,
0,
0,
1,
0,
0,
0,
1,
1,
0,
0,
0,
0,
0,
0,
0,
0,
0,
1,
0,
0,
0,
0,
0,
0,
0,
0,
0,
0,
0,
0,
0,
0,
0,
0,
0,
0,
1,
0,
0,
0,
0,
0,
0,
0,
0,
0,
0,
0,
0,
0,
0,
0,
0,
0,
0,
0,
0,
0,
0,
0,
0,
0,
0,
0,
0,
0,
0,
0,
0,
0,
0,
0,
0,
0,
0,
0,
0,
0,
0,
0,
0,
0,
0,
0,
0,
0,
0,
0,
0,
0,
0,
0,
#ENDOFDATA   :

File: SPI MM2 Spessartine[0][4].msa
#FORMAT      : EMSA/MAS Spectral Data File
#VERSION     : 1.0
#TITLE       : SPI MM2 Spessartine[0][all]
#DATE        : 13-MAR-2025
#TIME        : 12:02
#OWNER       : Unknown
#NPOINTS     : 4096
#NCOLUMNS    : 1
#XUNITS      : eV
#YUNITS      : counts
#DATATYPE    : Y
#XPERCHAN    : 9.99778
#OFFSET      : 1.69135
#BEAMKV      : 20
#SIGNALTYPE  : EDS
#ELEVANGLE   : 35
#AZIMANGLE   : 0
#LIVETIME    : 239.907
#REALTIME    : 256.291
#PROBECUR    : 1.02616
#TAUWIND     : 0
#TDEADLYR    : 0
#TACTLYR     : 0.045
#TALWIND     : 0.025
#CHOFFSET    : 0.0
#XLABEL      : Energy (eV)
#YLABEL      : Counts
#XPOSITION   : -5.81961
#YPOSITION   : 1.52155
#ZPOSITION   : 31.03511
#EDSDET      : SD
##SPECIMEN   : SPI MM2 Spessartine[0][all]
##DET_HASH   : 12273538-fd48-a23f-0a19-f1e6fa85caef
##CALIB_HASH : 6abaa72c-aa41-8738-0be9-f592914732f3
##WORKING    : 15.0 mm
##DET_NAME   : EDAX All
##DET_MODE   : MediumLE
#SPECTRUM    :
19,
213,
9786,
7596,
71937,
5377,
2297,
2830,
3294,
4004,
8996,
30359,
36924,
18404,
3243,
3147,
3378,
3116,
3152,
2980,
3023,
2765,
2824,
2818,
2728,
2776,
3243,
2631,
2346,
2477,
2399,
2163,
2124,
1973,
1931,
1802,
1751,
1743,
1665,
1632,
1712,
3519,
70530,
7044,
1361,
2102,
9621,
3611,
1027,
1044,
1202,
1113,
984,
1027,
936,
908,
863,
845,
798,
790,
773,
759,
746,
644,
699,
640,
591,
600,
585,
580,
555,
534,
510,
464,
465,
436,
449,
417,
437,
417,
357,
396,
342,
350,
349,
304,
293,
327,
284,
265,
271,
268,
246,
229,
204,
231,
198,
195,
185,
175,
174,
144,
138,
145,
130,
117,
124,
107,
104,
105,
102,
93,
82,
64,
95,
68,
70,
50,
50,
51,
49,
49,
43,
38,
35,
35,
25,
21,
32,
23,
17,
20,
14,
14,
8,
16,
7,
12,
9,
7,
2,
0,
1,
3,
0,
0,
0,
0,
0,
0,
0,
0,
0,
0,
3,
1,
1,
0,
0,
0,
1,
0,
0,
0,
1,
0,
0,
1,
0,
0,
0,
0,
0,
0,
0,
0,
0,
0,
0,
0,
0,
0,
0,
0,
0,
0,
0,
0,
0,
0,
0,
0,
0,
0,
0,
0,
0,
0,
0,
0,
0,
0,
0,
0,
0,
0,
0,
0,
0,
0,
0,
0,
0,
0,
0,
0,
0,
0,
0,
0,
0,
0,
0,
0,
0,
0,
0,
0,
0,
0,
0,
0,
0,
0,
0,
0,
0,
0,
0,
0,
0,
0,
0,
0,
0,
0,
0,
0,
0,
0,
0,
0,
0,
0,
0,
0,
0,
0,
0,
0,
0,
0,
0,
0,
0,
0,
0,
0,
0,
0,
0,
0,
0,
0,
0,
0,
0,
0,
0,
0,
0,
0,
0,
0,
0,
0,
0,
0,
0,
0,
0,
0,
0,
0,
#ENDOFDATA   :

File: SPI MM2 Spessartine[1][4].msa
#FORMAT      : EMSA/MAS Spectral Data File
#VERSION     : 1.0
#TITLE       : SPI MM2 Spessartine[1][all]
#DATE        : 13-MAR-2025
#TIME        : 12:04
#OWNER       : Unknown
#NPOINTS     : 4096
#NCOLUMNS    : 1
#XUNITS      : eV
#YUNITS      : counts
#DATATYPE    : Y
#XPERCHAN    : 9.99778
#OFFSET      : 1.69135
#BEAMKV      : 20
#SIGNALTYPE  : EDS
#ELEVANGLE   : 35
#AZIMANGLE   : 0
#LIVETIME    : 239.862
#REALTIME    : 256.243
#PROBECUR    : 1.02616
#TAUWIND     : 0
#TDEADLYR    : 0
#TACTLYR     : 0.045
#TALWIND     : 0.025
#CHOFFSET    : 0.0
#XLABEL      : Energy (eV)
#YLABEL      : Counts
#XPOSITION   : -5.83328
#YPOSITION   : 1.52392
#ZPOSITION   : 31.03511
#EDSDET      : SD
##SPECIMEN   : SPI MM2 Spessartine[1][all]
##DET_HASH   : 12273538-fd48-a23f-0a19-f1e6fa85caef
##CALIB_HASH : 6abaa72c-aa41-8738-0be9-f592914732f3
##WORKING    : 15.0 mm
##DET_NAME   : EDAX All
##DET_MODE   : MediumLE
#SPECTRUM    :
17,
198,
9783,
7747,
71322,
5230,
2266,
2750,
3437,
3909,
8894,
30344,
37192,
18463,
3291,
3108,
3425,
3126,
3047,
3007,
2967,
2999,
2814,
2936,
2691,
2734,
3222,
2709,
2303,
2418,
2442,
2129,
2104,
2080,
1956,
1869,
1761,
1720,
1694,
1630,
1653,
3434,
69868,
7128,
1426,
2097,
9555,
3741,
1103,
1052,
1246,
1067,
973,
1013,
997,
917,
832,
838,
796,
769,
737,
771,
699,
690,
643,
614,
631,
591,
569,
610,
586,
561,
491,
486,
511,
481,
454,
447,
386,
421,
411,
389,
333,
322,
372,
314,
308,
284,
304,
260,
269,
238,
216,
218,
220,
205,
209,
206,
168,
183,
181,
178,
143,
117,
125,
122,
111,
111,
109,
92,
99,
81,
94,
80,
71,
63,
59,
62,
53,
55,
49,
48,
41,
41,
49,
40,
39,
26,
23,
28,
21,
17,
24,
12,
19,
13,
3,
7,
8,
6,
6,
4,
1,
2,
0,
0,
1,
0,
1,
1,
0,
0,
1,
0,
0,
0,
0,
0,
1,
0,
0,
0,
0,
0,
0,
0,
0,
0,
0,
0,
0,
0,
0,
0,
0,
0,
0,
0,
0,
0,
0,
0,
0,
0,
0,
0,
0,
0,
0,
0,
0,
0,
0,
0,
0,
0,
0,
0,
0,
0,
0,
0,
0,
0,
0,
0,
0,
0,
0,
0,
0,
0,
0,
0,
0,
0,
0,
0,
1,
0,
0,
0,
0,
0,
0,
0,
0,
0,
0,
0,
0,
0,
0,
0,
0,
0,
0,
0,
0,
0,
0,
0,
0,
0,
0,
0,
0,
0,
0,
0,
0,
0,
0,
0,
0,
0,
0,
0,
0,
0,
0,
0,
0,
0,
0,
0,
0,
0,
0,
0,
0,
0,
0,
0,
0,
0,
0,
0,
0,
0,
0,
0,
0,
0,
0,
0,
0,
0,
0,
0,
0,
0,
0,
0,
#ENDOFDATA   :

File: SPI MM2 Spessartine[2][4].msa
#FORMAT      : EMSA/MAS Spectral Data File
#VERSION     : 1.0
#TITLE       : SPI MM2 Spessartine[2][all]
#DATE        : 13-MAR-2025
#TIME        : 12:05
#OWNER       : Unknown
#NPOINTS     : 4096
#NCOLUMNS    : 1
#XUNITS      : eV
#YUNITS      : counts
#DATATYPE    : Y
#XPERCHAN    : 9.99778
#OFFSET      : 1.69135
#BEAMKV      : 20
#SIGNALTYPE  : EDS
#ELEVANGLE   : 35
#AZIMANGLE   : 0
#LIVETIME    : 239.751
#REALTIME    : 256.042
#PROBECUR    : 1.02616
#TAUWIND     : 0
#TDEADLYR    : 0
#TACTLYR     : 0.045
#TALWIND     : 0.025
#CHOFFSET    : 0.0
#XLABEL      : Energy (eV)
#YLABEL      : Counts
#XPOSITION   : -5.88833
#YPOSITION   : 1.56441
#ZPOSITION   : 31.03511
#EDSDET      : SD
##SPECIMEN   : SPI MM2 Spessartine[2][all]
##DET_HASH   : 12273538-fd48-a23f-0a19-f1e6fa85caef
##CALIB_HASH : 6abaa72c-aa41-8738-0be9-f592914732f3
##WORKING    : 15.0 mm
##DET_NAME   : EDAX All
##DET_MODE   : MediumLE
#SPECTRUM    :
25,
218,
10072,
7606,
70387,
5394,
2324,
2751,
3168,
4027,
8828,
29772,
36634,
18635,
3204,
3071,
3285,
3143,
3056,
3040,
2973,
2807,
2792,
2898,
2645,
2756,
3169,
2625,
2339,
2487,
2363,
2076,
2096,
2018,
1921,
1859,
1782,
1775,
1686,
1610,
1650,
3421,
70045,
7137,
1444,
2102,
9477,
3667,
1112,
1053,
1248,
1025,
959,
996,
987,
938,
915,
846,
788,
772,
849,
703,
672,
708,
678,
648,
616,
605,
572,
587,
549,
525,
539,
520,
479,
453,
467,
444,
421,
398,
376,
363,
353,
340,
382,
308,
315,
310,
278,
257,
262,
260,
229,
234,
213,
198,
202,
187,
184,
184,
172,
176,
154,
148,
127,
105,
133,
129,
107,
103,
93,
102,
77,
66,
65,
68,
71,
55,
53,
47,
43,
42,
42,
40,
30,
25,
31,
30,
24,
25,
20,
17,
15,
16,
12,
7,
4,
10,
4,
3,
7,
1,
1,
1,
0,
0,
0,
0,
0,
0,
0,
0,
1,
0,
1,
1,
1,
1,
0,
1,
0,
0,
0,
0,
0,
1,
0,
0,
0,
0,
0,
0,
0,
0,
0,
0,
0,
0,
0,
0,
1,
0,
0,
0,
0,
0,
0,
0,
0,
0,
0,
0,
0,
0,
0,
0,
0,
0,
0,
0,
0,
0,
0,
0,
0,
0,
0,
0,
0,
0,
0,
0,
0,
0,
0,
0,
0,
0,
0,
0,
0,
0,
0,
0,
0,
0,
0,
0,
0,
0,
0,
0,
0,
0,
0,
0,
0,
0,
0,
0,
0,
0,
0,
0,
0,
0,
0,
0,
0,
0,
0,
0,
0,
0,
0,
0,
0,
0,
0,
0,
0,
0,
0,
0,
0,
0,
0,
0,
0,
0,
0,
0,
0,
0,
0,
0,
0,
0,
0,
0,
0,
0,
0,
0,
0,
0,
0,
0,
0,
0,
0,
0,
0,
0,
#ENDOFDATA   :

File: SPI MM2 Spessartine[3][4].msa
#FORMAT      : EMSA/MAS Spectral Data File
#VERSION     : 1.0
#TITLE       : SPI MM2 Spessartine[3][all]
#DATE        : 13-MAR-2025
#TIME        : 12:06
#OWNER       : Unknown
#NPOINTS     : 4096
#NCOLUMNS    : 1
#XUNITS      : eV
#YUNITS      : counts
#DATATYPE    : Y
#XPERCHAN    : 9.99778
#OFFSET      : 1.69135
#BEAMKV      : 20
#SIGNALTYPE  : EDS
#ELEVANGLE   : 35
#AZIMANGLE   : 0
#LIVETIME    : 239.914
#REALTIME    : 256.297
#PROBECUR    : 1.02616
#TAUWIND     : 0
#TDEADLYR    : 0
#TACTLYR     : 0.045
#TALWIND     : 0.025
#CHOFFSET    : 0.0
#XLABEL      : Energy (eV)
#YLABEL      : Counts
#XPOSITION   : -5.76443
#YPOSITION   : 1.5168
#ZPOSITION   : 31.03511
#EDSDET      : SD
##SPECIMEN   : SPI MM2 Spessartine[3][all]
##DET_HASH   : 12273538-fd48-a23f-0a19-f1e6fa85caef
##CALIB_HASH : 6abaa72c-aa41-8738-0be9-f592914732f3
##WORKING    : 15.0 mm
##DET_NAME   : EDAX All
##DET_MODE   : MediumLE
#SPECTRUM    :
24,
212,
9817,
7636,
71192,
5383,
2198,
2770,
3368,
4014,
8899,
30015,
37062,
18294,
3254,
3194,
3393,
3173,
3039,
3039,
2985,
2986,
2890,
2904,
2660,
2786,
3151,
2709,
2514,
2416,
2444,
2106,
2135,
2071,
1920,
1857,
1794,
1734,
1685,
1650,
1676,
3487,
70414,
7119,
1457,
2011,
9553,
3644,
1110,
1046,
1266,
1082,
953,
1019,
949,
897,
859,
806,
753,
782,
760,
745,
768,
682,
660,
657,
636,
594,
633,
577,
585,
529,
525,
525,
467,
461,
456,
452,
406,
391,
363,
378,
327,
354,
351,
333,
301,
298,
257,
269,
252,
262,
257,
222,
211,
213,
221,
184,
198,
177,
165,
161,
152,
131,
124,
125,
117,
110,
102,
108,
99,
92,
77,
74,
70,
68,
62,
58,
39,
44,
49,
45,
45,
42,
28,
45,
37,
29,
25,
25,
25,
19,
23,
14,
12,
11,
14,
11,
5,
1,
2,
3,
2,
0,
1,
1,
0,
1,
0,
1,
0,
1,
1,
0,
0,
1,
0,
0,
0,
1,
0,
0,
0,
0,
0,
0,
0,
0,
0,
0,
0,
0,
0,
0,
0,
0,
0,
0,
0,
0,
0,
0,
0,
0,
1,
0,
0,
0,
0,
0,
1,
0,
0,
0,
0,
0,
0,
0,
0,
0,
0,
0,
0,
0,
0,
0,
0,
0,
0,
0,
0,
0,
0,
0,
0,
0,
0,
0,
0,
0,
0,
0,
0,
0,
0,
0,
0,
0,
0,
0,
0,
0,
0,
0,
0,
0,
0,
0,
0,
0,
0,
0,
0,
0,
0,
0,
0,
0,
0,
0,
0,
0,
0,
0,
0,
0,
0,
0,
0,
0,
0,
0,
0,
0,
0,
0,
0,
0,
0,
0,
0,
0,
0,
0,
0,
0,
0,
0,
0,
0,
0,
0,
0,
0,
0,
0,
0,
0,
0,
0,
0,
0,
0,
0,
#ENDOFDATA   :

File: SPI MM2 Spessartine[4][4].msa
#FORMAT      : EMSA/MAS Spectral Data File
#VERSION     : 1.0
#TITLE       : SPI MM2 Spessartine[4][all]
#DATE        : 13-MAR-2025
#TIME        : 12:07
#OWNER       : Unknown
#NPOINTS     : 4096
#NCOLUMNS    : 1
#XUNITS      : eV
#YUNITS      : counts
#DATATYPE    : Y
#XPERCHAN    : 9.99778
#OFFSET      : 1.69135
#BEAMKV      : 20
#SIGNALTYPE  : EDS
#ELEVANGLE   : 35
#AZIMANGLE   : 0
#LIVETIME    : 239.861
#REALTIME    : 256.239
#PROBECUR    : 1.02616
#TAUWIND     : 0
#TDEADLYR    : 0
#TACTLYR     : 0.045
#TALWIND     : 0.025
#CHOFFSET    : 0.0
#XLABEL      : Energy (eV)
#YLABEL      : Counts
#XPOSITION   : -5.77917
#YPOSITION   : 1.56153
#ZPOSITION   : 31.03511
#EDSDET      : SD
##SPECIMEN   : SPI MM2 Spessartine[4][all]
##DET_HASH   : 12273538-fd48-a23f-0a19-f1e6fa85caef
##CALIB_HASH : 6abaa72c-aa41-8738-0be9-f592914732f3
##WORKING    : 15.0 mm
##DET_NAME   : EDAX All
##DET_MODE   : MediumLE
#SPECTRUM    :
29,
237,
9807,
7639,
71688,
5501,
2313,
2820,
3409,
3887,
8925,
30433,
37317,
18769,
3394,
3062,
3449,
3127,
3085,
3002,
2950,
2957,
2720,
2865,
2675,
2640,
3175,
2714,
2397,
2439,
2430,
2101,
2168,
1980,
1836,
1842,
1813,
1798,
1743,
1645,
1695,
3613,
70566,
7111,
1422,
2002,
9688,
3680,
1080,
1053,
1160,
1106,
954,
1050,
985,
989,
895,
883,
819,
807,
762,
769,
669,
697,
647,
644,
620,
602,
618,
561,
571,
549,
535,
504,
491,
469,
430,
442,
418,
416,
406,
350,
368,
361,
348,
335,
330,
313,
306,
266,
256,
260,
228,
226,
222,
191,
195,
187,
179,
169,
150,
150,
141,
135,
137,
134,
118,
114,
105,
95,
91,
94,
78,
87,
78,
52,
63,
57,
52,
60,
43,
49,
37,
36,
30,
30,
29,
26,
34,
21,
25,
18,
15,
12,
5,
13,
8,
6,
4,
3,
1,
3,
3,
0,
0,
1,
0,
0,
0,
0,
1,
0,
0,
0,
0,
0,
0,
0,
0,
0,
0,
0,
0,
0,
0,
0,
0,
0,
0,
0,
0,
0,
0,
0,
0,
0,
0,
0,
0,
0,
0,
0,
0,
0,
0,
0,
0,
0,
0,
0,
0,
0,
0,
0,
0,
0,
0,
0,
0,
0,
0,
0,
0,
0,
0,
0,
0,
0,
0,
0,
0,
0,
0,
0,
0,
0,
0,
0,
0,
0,
0,
0,
0,
0,
0,
0,
0,
0,
0,
0,
0,
0,
0,
0,
0,
0,
0,
0,
0,
0,
0,
0,
0,
0,
0,
0,
0,
0,
0,
0,
0,
0,
0,
0,
0,
0,
0,
0,
0,
0,
0,
0,
0,
0,
0,
0,
0,
0,
0,
0,
0,
0,
0,
0,
0,
0,
0,
0,
0,
0,
0,
0,
0,
0,
0,
0,
0,
0,
0,
0,
0,
0,
0,
0,
#ENDOFDATA   :

File: SPI MM2 Spessartine[5][4].msa
#FORMAT      : EMSA/MAS Spectral Data File
#VERSION     : 1.0
#TITLE       : SPI MM2 Spessartine[5][all]
#DATE        : 13-MAR-2025
#TIME        : 12:08
#OWNER       : Unknown
#NPOINTS     : 4096
#NCOLUMNS    : 1
#XUNITS      : eV
#YUNITS      : counts
#DATATYPE    : Y
#XPERCHAN    : 9.99778
#OFFSET      : 1.69135
#BEAMKV      : 20
#SIGNALTYPE  : EDS
#ELEVANGLE   : 35
#AZIMANGLE   : 0
#LIVETIME    : 239.868
#REALTIME    : 256.24
#PROBECUR    : 1.02616
#TAUWIND     : 0
#TDEADLYR    : 0
#TACTLYR     : 0.045
#TALWIND     : 0.025
#CHOFFSET    : 0.0
#XLABEL      : Energy (eV)
#YLABEL      : Counts
#XPOSITION   : -5.77917
#YPOSITION   : 1.56153
#ZPOSITION   : 31.03511
#EDSDET      : SD
##SPECIMEN   : SPI MM2 Spessartine[5][all]
##DET_HASH   : 12273538-fd48-a23f-0a19-f1e6fa85caef
##CALIB_HASH : 6abaa72c-aa41-8738-0be9-f592914732f3
##WORKING    : 15.0 mm
##DET_NAME   : EDAX All
##DET_MODE   : MediumLE
#SPECTRUM    :
15,
217,
9851,
7600,
71711,
5391,
2300,
2829,
3400,
3981,
8909,
30330,
37040,
18542,
3210,
3139,
3481,
3109,
3087,
3108,
3036,
2980,
2841,
2859,
2712,
2690,
3207,
2745,
2424,
2450,
2300,
2096,
2070,
1979,
1987,
1787,
1777,
1752,
1693,
1658,
1573,
3525,
70122,
7164,
1499,
2040,
9640,
3767,
1111,
1087,
1268,
1077,
1036,
1042,
972,
946,
906,
780,
809,
792,
838,
709,
753,
727,
665,
684,
621,
605,
613,
556,
584,
529,
526,
491,
476,
510,
435,
423,
402,
399,
395,
381,
361,
352,
364,
335,
294,
268,
291,
274,
240,
259,
248,
254,
222,
174,
212,
201,
186,
188,
130,
160,
153,
156,
125,
126,
111,
107,
98,
93,
87,
94,
79,
69,
73,
54,
67,
76,
45,
64,
51,
37,
44,
35,
41,
34,
26,
30,
24,
24,
17,
20,
13,
8,
19,
8,
17,
7,
7,
4,
7,
3,
0,
1,
0,
0,
0,
0,
0,
0,
0,
1,
0,
0,
0,
0,
0,
0,
0,
0,
0,
0,
0,
0,
0,
0,
0,
0,
0,
1,
0,
0,
0,
0,
0,
0,
0,
0,
0,
0,
0,
0,
0,
0,
0,
0,
0,
0,
0,
0,
0,
0,
0,
0,
0,
0,
0,
0,
0,
0,
0,
0,
0,
0,
0,
0,
0,
0,
0,
0,
0,
0,
0,
0,
1,
0,
0,
0,
0,
0,
0,
0,
0,
0,
0,
0,
0,
0,
0,
0,
0,
0,
0,
0,
0,
0,
0,
0,
0,
0,
0,
0,
0,
0,
0,
0,
0,
0,
0,
0,
0,
0,
0,
0,
0,
0,
0,
0,
0,
0,
0,
0,
0,
0,
0,
0,
0,
0,
0,
0,
0,
0,
0,
0,
0,
0,
0,
0,
0,
0,
0,
0,
0,
0,
0,
0,
0,
0,
0,
0,
0,
0,
0,
0,
#ENDOFDATA   :

File: SPI MM2 Spessartine[6][4].msa
#FORMAT      : EMSA/MAS Spectral Data File
#VERSION     : 1.0
#TITLE       : SPI MM2 Spessartine[6][all]
#DATE        : 13-MAR-2025
#TIME        : 12:09
#OWNER       : Unknown
#NPOINTS     : 4096
#NCOLUMNS    : 1
#XUNITS      : eV
#YUNITS      : counts
#DATATYPE    : Y
#XPERCHAN    : 9.99778
#OFFSET      : 1.69135
#BEAMKV      : 20
#SIGNALTYPE  : EDS
#ELEVANGLE   : 35
#AZIMANGLE   : 0
#LIVETIME    : 239.941
#REALTIME    : 256.357
#PROBECUR    : 1.02616
#TAUWIND     : 0
#TDEADLYR    : 0
#TACTLYR     : 0.045
#TALWIND     : 0.025
#CHOFFSET    : 0.0
#XLABEL      : Energy (eV)
#YLABEL      : Counts
#XPOSITION   : -5.73194
#YPOSITION   : 1.54127
#ZPOSITION   : 31.03511
#EDSDET      : SD
##SPECIMEN   : SPI MM2 Spessartine[6][all]
##DET_HASH   : 12273538-fd48-a23f-0a19-f1e6fa85caef
##CALIB_HASH : 6abaa72c-aa41-8738-0be9-f592914732f3
##WORKING    : 15.0 mm
##DET_NAME   : EDAX All
##DET_MODE   : MediumLE
#SPECTRUM    :
20,
225,
9892,
7510,
71627,
5327,
2279,
2766,
3326,
3812,
8961,
30303,
37313,
18705,
3199,
3156,
3471,
3069,
3091,
3016,
3079,
2920,
2862,
2830,
2587,
2653,
3239,
2623,
2356,
2483,
2427,
2115,
2133,
1913,
2039,
1812,
1860,
1716,
1619,
1651,
1678,
3563,
70688,
7163,
1426,
2043,
9527,
3724,
1091,
969,
1146,
1114,
969,
1031,
1029,
974,
838,
839,
829,
771,
728,
730,
773,
696,
725,
625,
645,
616,
610,
632,
534,
525,
464,
483,
472,
437,
440,
434,
403,
408,
366,
394,
345,
356,
344,
316,
321,
288,
283,
278,
231,
262,
246,
244,
200,
196,
199,
211,
197,
166,
166,
155,
133,
115,
127,
114,
118,
99,
128,
98,
103,
96,
90,
79,
67,
65,
62,
55,
63,
44,
53,
52,
56,
37,
36,
29,
23,
36,
28,
21,
21,
20,
22,
14,
11,
8,
14,
5,
5,
5,
0,
3,
1,
0,
0,
0,
1,
0,
0,
0,
0,
1,
0,
0,
0,
0,
0,
1,
0,
0,
0,
0,
0,
0,
0,
0,
0,
0,
0,
0,
0,
0,
0,
0,
0,
0,
0,
0,
0,
0,
0,
0,
0,
0,
0,
0,
0,
0,
0,
0,
0,
0,
0,
0,
0,
0,
0,
0,
0,
0,
0,
0,
0,
0,
0,
0,
0,
0,
0,
0,
0,
0,
0,
0,
0,
0,
0,
0,
0,
0,
0,
0,
0,
0,
0,
0,
0,
0,
0,
0,
0,
0,
0,
0,
0,
0,
0,
0,
0,
0,
0,
0,
0,
0,
0,
0,
0,
0,
0,
0,
0,
0,
0,
0,
0,
0,
0,
0,
0,
0,
0,
0,
0,
0,
0,
0,
0,
0,
0,
0,
0,
0,
0,
0,
0,
0,
0,
0,
0,
0,
0,
0,
0,
0,
0,
0,
0,
0,
0,
0,
0,
0,
0,
0,
#ENDOFDATA   :