Folder: spex_quant/N132962/Quantification/20 keV/MMM2 (part 15)

File: SPI MM2 Stibnite[4][4].msa
#FORMAT      : EMSA/MAS Spectral Data File
#VERSION     : 1.0
#TITLE       : SPI MM2 Stibnite[4][all]
#DATE        : 13-MAR-2025
#TIME        : 13:21
#OWNER       : Unknown
#NPOINTS     : 4096
#NCOLUMNS    : 1
#XUNITS      : eV
#YUNITS      : counts
#DATATYPE    : Y
#XPERCHAN    : 9.99778
#OFFSET      : 1.69135
#BEAMKV      : 20
#SIGNALTYPE  : EDS
#ELEVANGLE   : 35
#AZIMANGLE   : 0
#LIVETIME    : 239.8101
#REALTIME    : 263.258
#PROBECUR    : 1.0263
#TAUWIND     : 0
#TDEADLYR    : 0
#TACTLYR     : 0.045
#TALWIND     : 0.025
#CHOFFSET    : 0.0
#XLABEL      : Energy (eV)
#YLABEL      : Counts
#XPOSITION   : 1.563
#YPOSITION   : 4.29398
#ZPOSITION   : 31.03511
#EDSDET      : SD
##SPECIMEN   : SPI MM2 Stibnite[4][all]
##DET_HASH   : 12273538-fd48-a23f-0a19-f1e6fa85caef
##CALIB_HASH : 6abaa72c-aa41-8738-0be9-f592914732f3
##WORKING    : 15.0 mm
##DET_NAME   : EDAX All
##DET_MODE   : MediumLE
#SPECTRUM    :
21,
1939,
15010,
16957,
9525,
5443,
4689,
4689,
5295,
5941,
6752,
7352,
7710,
8922,
7659,
8542,
60442,
47903,
11972,
5554,
5467,
5589,
5824,
9345,
5939,
17295,
104764,
27732,
39399,
17562,
7249,
10297,
4103,
6489,
3394,
3054,
3161,
3259,
3177,
3024,
2965,
2971,
3162,
3011,
3088,
2951,
3222,
2663,
2603,
2624,
2562,
2441,
2475,
2581,
2380,
2241,
2163,
2152,
2043,
2085,
2030,
1918,
1863,
1894,
1758,
1763,
1674,
1664,
1622,
1603,
1483,
1590,
1429,
1403,
1355,
1358,
1353,
1246,
1215,
1199,
1131,
1101,
1059,
1010,
888,
938,
916,
898,
784,
795,
767,
723,
737,
668,
673,
616,
630,
630,
547,
568,
526,
467,
462,
458,
407,
411,
402,
396,
367,
323,
308,
307,
276,
255,
241,
214,
220,
205,
192,
173,
172,
162,
161,
134,
141,
127,
120,
75,
98,
88,
74,
72,
79,
65,
59,
56,
31,
38,
25,
21,
13,
11,
10,
4,
5,
1,
2,
1,
2,
4,
2,
0,
3,
0,
0,
1,
0,
2,
1,
1,
2,
0,
2,
0,
0,
0,
2,
1,
2,
0,
0,
0,
0,
0,
0,
1,
0,
0,
0,
0,
0,
0,
0,
0,
0,
0,
0,
0,
0,
0,
0,
0,
0,
0,
0,
0,
0,
1,
0,
0,
0,
0,
0,
1,
0,
0,
0,
0,
0,
0,
1,
0,
0,
1,
0,
0,
0,
0,
0,
0,
0,
0,
0,
0,
0,
0,
0,
0,
0,
0,
0,
0,
0,
0,
0,
0,
0,
0,
0,
0,
0,
0,
0,
0,
0,
0,
0,
0,
0,
0,
0,
0,
0,
0,
0,
0,
0,
0,
0,
0,
0,
0,
0,
0,
0,
0,
0,
0,
0,
0,
0,
0,
0,
0,
0,
0,
0,
0,
0,
0,
0,
0,
0,
0,
0,
0,
0,
0,
0,
0,
0,
0,
0,
0,
#ENDOFDATA   :

File: SPI MM2 Stibnite[6][4].msa
#FORMAT      : EMSA/MAS Spectral Data File
#VERSION     : 1.0
#TITLE       : SPI MM2 Stibnite[6][all]
#DATE        : 13-MAR-2025
#TIME        : 13:23
#OWNER       : Unknown
#NPOINTS     : 4096
#NCOLUMNS    : 1
#XUNITS      : eV
#YUNITS      : counts
#DATATYPE    : Y
#XPERCHAN    : 9.99778
#OFFSET      : 1.69135
#BEAMKV      : 20
#SIGNALTYPE  : EDS
#ELEVANGLE   : 35
#AZIMANGLE   : 0
#LIVETIME    : 239.872
#REALTIME    : 263.343
#PROBECUR    : 1.0263
#TAUWIND     : 0
#TDEADLYR    : 0
#TACTLYR     : 0.045
#TALWIND     : 0.025
#CHOFFSET    : 0.0
#XLABEL      : Energy (eV)
#YLABEL      : Counts
#XPOSITION   : 1.5172
#YPOSITION   : 4.29875
#ZPOSITION   : 31.03511
#EDSDET      : SD
##SPECIMEN   : SPI MM2 Stibnite[6][all]
##DET_HASH   : 12273538-fd48-a23f-0a19-f1e6fa85caef
##CALIB_HASH : 6abaa72c-aa41-8738-0be9-f592914732f3
##WORKING    : 15.0 mm
##DET_NAME   : EDAX All
##DET_MODE   : MediumLE
#SPECTRUM    :
17,
1938,
15062,
16630,
9264,
5451,
4826,
4518,
5348,
6071,
6809,
7291,
7832,
8934,
7530,
8443,
60791,
48162,
11950,
5501,
5503,
5416,
5927,
9299,
5858,
17332,
105161,
28220,
39462,
17579,
7280,
10124,
4197,
6425,
3394,
3318,
3104,
3086,
3184,
3107,
3076,
2999,
3149,
2998,
3049,
2930,
3191,
2646,
2611,
2572,
2652,
2531,
2435,
2629,
2435,
2322,
2110,
2187,
2128,
2039,
2020,
2029,
1934,
1857,
1787,
1685,
1747,
1662,
1643,
1546,
1483,
1444,
1434,
1402,
1343,
1383,
1265,
1203,
1176,
1217,
1096,
1133,
1039,
1063,
1040,
913,
947,
874,
841,
838,
779,
759,
752,
671,
661,
641,
638,
607,
577,
526,
519,
485,
460,
458,
422,
369,
390,
379,
299,
336,
305,
309,
246,
270,
253,
247,
229,
200,
195,
192,
191,
165,
165,
123,
125,
106,
111,
101,
96,
86,
87,
58,
51,
69,
51,
50,
37,
28,
24,
15,
16,
10,
12,
1,
2,
4,
1,
5,
1,
2,
2,
0,
2,
2,
3,
0,
3,
1,
1,
1,
2,
2,
2,
0,
0,
0,
2,
1,
0,
1,
0,
0,
0,
0,
0,
2,
0,
2,
1,
0,
2,
0,
0,
0,
0,
0,
0,
1,
0,
0,
0,
0,
0,
0,
0,
0,
0,
0,
1,
0,
0,
1,
1,
0,
0,
0,
0,
0,
0,
0,
0,
0,
0,
0,
0,
0,
0,
0,
0,
0,
0,
0,
0,
0,
0,
0,
0,
0,
0,
0,
0,
0,
0,
0,
0,
0,
0,
0,
0,
0,
0,
0,
0,
0,
0,
0,
0,
0,
0,
0,
0,
0,
0,
0,
0,
0,
0,
0,
0,
0,
0,
0,
0,
0,
0,
0,
0,
0,
0,
0,
0,
0,
0,
0,
0,
0,
0,
0,
0,
0,
0,
0,
0,
0,
0,
0,
0,
0,
0,
0,
0,
0,
0,
0,
#ENDOFDATA   :

File: SPI MM2 Stibnite[7][4].msa
#FORMAT      : EMSA/MAS Spectral Data File
#VERSION     : 1.0
#TITLE       : SPI MM2 Stibnite[7][all]
#DATE        : 13-MAR-2025
#TIME        : 13:24
#OWNER       : Unknown
#NPOINTS     : 4096
#NCOLUMNS    : 1
#XUNITS      : eV
#YUNITS      : counts
#DATATYPE    : Y
#XPERCHAN    : 9.99778
#OFFSET      : 1.69135
#BEAMKV      : 20
#SIGNALTYPE  : EDS
#ELEVANGLE   : 35
#AZIMANGLE   : 0
#LIVETIME    : 239.942
#REALTIME    : 263.273
#PROBECUR    : 1.0263
#TAUWIND     : 0
#TDEADLYR    : 0
#TACTLYR     : 0.045
#TALWIND     : 0.025
#CHOFFSET    : 0.0
#XLABEL      : Energy (eV)
#YLABEL      : Counts
#XPOSITION   : 1.54233
#YPOSITION   : 4.43003
#ZPOSITION   : 31.03511
#EDSDET      : SD
##SPECIMEN   : SPI MM2 Stibnite[7][all]
##DET_HASH   : 12273538-fd48-a23f-0a19-f1e6fa85caef
##CALIB_HASH : 6abaa72c-aa41-8738-0be9-f592914732f3
##WORKING    : 15.0 mm
##DET_NAME   : EDAX All
##DET_MODE   : MediumLE
#SPECTRUM    :
27,
1974,
15171,
16550,
9621,
5455,
4741,
4655,
5289,
5848,
6778,
7204,
7965,
8986,
7451,
8392,
59801,
47594,
11769,
5510,
5611,
5524,
5718,
9314,
5953,
17409,
104931,
28053,
39561,
17504,
7221,
10086,
4013,
6386,
3297,
3097,
3230,
3139,
3078,
3124,
2996,
2969,
3167,
2971,
3046,
2887,
3137,
2662,
2562,
2668,
2606,
2494,
2404,
2591,
2400,
2161,
2233,
2106,
1998,
2156,
1952,
1962,
1929,
1881,
1788,
1689,
1677,
1609,
1597,
1539,
1624,
1519,
1486,
1436,
1376,
1343,
1305,
1234,
1241,
1153,
1141,
1067,
1071,
1004,
1053,
890,
896,
794,
842,
851,
762,
730,
744,
676,
657,
640,
640,
615,
576,
585,
522,
465,
473,
435,
423,
393,
370,
362,
344,
301,
306,
310,
279,
259,
264,
225,
254,
191,
219,
181,
163,
179,
161,
183,
114,
151,
103,
108,
103,
95,
76,
67,
62,
59,
42,
46,
45,
37,
33,
24,
22,
10,
2,
5,
5,
2,
3,
1,
3,
2,
0,
1,
1,
0,
0,
4,
1,
1,
0,
0,
0,
0,
1,
1,
1,
2,
0,
0,
0,
1,
0,
1,
0,
0,
0,
0,
0,
0,
0,
1,
1,
0,
0,
0,
0,
0,
1,
0,
0,
0,
0,
0,
2,
0,
0,
0,
0,
1,
0,
0,
0,
0,
0,
0,
0,
0,
0,
0,
0,
0,
0,
0,
1,
0,
0,
0,
0,
0,
0,
0,
0,
0,
0,
0,
0,
0,
0,
0,
0,
0,
0,
0,
0,
0,
0,
0,
0,
0,
0,
0,
0,
0,
0,
0,
0,
0,
0,
0,
0,
0,
0,
0,
0,
0,
0,
0,
0,
0,
0,
0,
0,
0,
0,
0,
0,
0,
0,
0,
0,
0,
0,
0,
0,
0,
0,
0,
0,
0,
0,
0,
0,
0,
0,
0,
0,
0,
0,
0,
0,
0,
0,
0,
0,
0,
#ENDOFDATA   :

File: SPI MM2 Tugtupite[0][4].msa
#FORMAT      : EMSA/MAS Spectral Data File
#VERSION     : 1.0
#TITLE       : SPI MM2 Tugtupite[0][all]
#DATE        : 13-MAR-2025
#TIME        : 13:35
#OWNER       : Unknown
#NPOINTS     : 4096
#NCOLUMNS    : 1
#XUNITS      : eV
#YUNITS      : counts
#DATATYPE    : Y
#XPERCHAN    : 9.99778
#OFFSET      : 1.69135
#BEAMKV      : 20
#SIGNALTYPE  : EDS
#ELEVANGLE   : 35
#AZIMANGLE   : 0
#LIVETIME    : 239.833
#REALTIME    : 255.347
#PROBECUR    : 1.0263
#TAUWIND     : 0
#TDEADLYR    : 0
#TACTLYR     : 0.045
#TALWIND     : 0.025
#CHOFFSET    : 0.0
#XLABEL      : Energy (eV)
#YLABEL      : Counts
#XPOSITION   : -4.47319
#YPOSITION   : 3.53563
#ZPOSITION   : 31.03511
#EDSDET      : SD
##SPECIMEN   : SPI MM2 Tugtupite[0][all]
##DET_HASH   : 12273538-fd48-a23f-0a19-f1e6fa85caef
##CALIB_HASH : 6abaa72c-aa41-8738-0be9-f592914732f3
##WORKING    : 15.0 mm
##DET_NAME   : EDAX All
##DET_MODE   : MediumLE
#SPECTRUM    :
23,
210,
8335,
5269,
50725,
2356,
3737,
30045,
8843,
3141,
6119,
18464,
55665,
26422,
2295,
2349,
2796,
2299,
5217,
29740,
6026,
2119,
2037,
2043,
1936,
2045,
1768,
1670,
1710,
1565,
1557,
1498,
1494,
1436,
1359,
1276,
1232,
1178,
1186,
1155,
1131,
1076,
1038,
1025,
946,
944,
1016,
870,
820,
831,
798,
747,
720,
712,
678,
696,
617,
596,
587,
585,
539,
570,
484,
498,
442,
454,
446,
396,
396,
390,
382,
407,
365,
353,
385,
329,
308,
252,
310,
256,
272,
240,
238,
255,
233,
221,
218,
190,
196,
191,
187,
178,
158,
139,
142,
140,
130,
125,
125,
105,
108,
98,
71,
81,
92,
80,
74,
53,
76,
61,
63,
57,
51,
50,
39,
34,
48,
30,
32,
33,
38,
24,
24,
20,
25,
22,
25,
11,
4,
17,
12,
12,
5,
12,
15,
10,
3,
4,
4,
1,
0,
0,
1,
0,
0,
0,
0,
0,
0,
0,
0,
1,
0,
0,
0,
0,
0,
0,
0,
0,
0,
0,
0,
0,
0,
0,
0,
0,
0,
0,
0,
0,
0,
0,
0,
0,
0,
0,
0,
0,
0,
0,
0,
0,
0,
0,
0,
0,
1,
0,
0,
0,
0,
0,
0,
0,
0,
0,
0,
0,
0,
0,
0,
0,
0,
0,
0,
0,
0,
0,
0,
0,
0,
0,
0,
0,
0,
0,
0,
0,
0,
0,
0,
0,
0,
0,
0,
0,
0,
0,
0,
0,
0,
0,
0,
0,
0,
0,
0,
0,
0,
0,
0,
0,
0,
0,
0,
0,
0,
0,
0,
0,
0,
0,
0,
0,
0,
0,
0,
0,
0,
0,
0,
0,
0,
0,
0,
0,
0,
0,
0,
0,
0,
0,
0,
0,
0,
0,
0,
0,
0,
0,
0,
0,
0,
0,
0,
0,
0,
0,
0,
0,
0,
0,
#ENDOFDATA   :

File: SPI MM2 Tugtupite[1][4].msa
#FORMAT      : EMSA/MAS Spectral Data File
#VERSION     : 1.0
#TITLE       : SPI MM2 Tugtupite[1][all]
#DATE        : 13-MAR-2025
#TIME        : 13:36
#OWNER       : Unknown
#NPOINTS     : 4096
#NCOLUMNS    : 1
#XUNITS      : eV
#YUNITS      : counts
#DATATYPE    : Y
#XPERCHAN    : 9.99778
#OFFSET      : 1.69135
#BEAMKV      : 20
#SIGNALTYPE  : EDS
#ELEVANGLE   : 35
#AZIMANGLE   : 0
#LIVETIME    : 239.8374
#REALTIME    : 255.339
#PROBECUR    : 1.0264
#TAUWIND     : 0
#TDEADLYR    : 0
#TACTLYR     : 0.045
#TALWIND     : 0.025
#CHOFFSET    : 0.0
#XLABEL      : Energy (eV)
#YLABEL      : Counts
#XPOSITION   : -4.51562
#YPOSITION   : 3.53722
#ZPOSITION   : 31.03512
#EDSDET      : SD
##SPECIMEN   : SPI MM2 Tugtupite[1][all]
##DET_HASH   : 12273538-fd48-a23f-0a19-f1e6fa85caef
##CALIB_HASH : 6abaa72c-aa41-8738-0be9-f592914732f3
##WORKING    : 15.0 mm
##DET_NAME   : EDAX All
##DET_MODE   : MediumLE
#SPECTRUM    :
31,
224,
8425,
5274,
50992,
2350,
3511,
29689,
8642,
3205,
6230,
18722,
55706,
26647,
2245,
2413,
2665,
2333,
5140,
29962,
5897,
2033,
2059,
1988,
1842,
2046,
1798,
1700,
1676,
1493,
1623,
1634,
1432,
1342,
1303,
1379,
1298,
1181,
1225,
1224,
1118,
1045,
1028,
963,
876,
944,
968,
908,
834,
861,
753,
759,
771,
730,
674,
661,
611,
596,
625,
574,
533,
509,
527,
478,
464,
471,
442,
417,
441,
409,
386,
376,
378,
349,
327,
331,
321,
311,
287,
250,
253,
271,
262,
229,
245,
246,
220,
204,
182,
183,
152,
166,
172,
151,
115,
130,
121,
115,
99,
119,
105,
116,
99,
73,
78,
66,
79,
85,
74,
50,
69,
62,
49,
46,
35,
41,
31,
38,
49,
32,
31,
30,
21,
22,
20,
25,
11,
22,
17,
14,
11,
14,
20,
9,
8,
7,
1,
4,
4,
1,
5,
2,
2,
0,
0,
0,
0,
0,
0,
0,
0,
0,
0,
0,
0,
0,
0,
0,
0,
0,
0,
0,
0,
0,
0,
0,
0,
0,
0,
0,
0,
0,
0,
0,
0,
0,
1,
0,
0,
0,
0,
0,
0,
0,
0,
0,
0,
0,
0,
0,
0,
0,
0,
0,
0,
0,
0,
0,
0,
0,
0,
0,
0,
0,
0,
0,
0,
0,
0,
0,
0,
0,
0,
0,
0,
0,
0,
0,
0,
0,
0,
0,
0,
0,
0,
0,
0,
0,
0,
0,
0,
0,
0,
0,
0,
0,
0,
0,
0,
0,
0,
0,
0,
0,
0,
0,
0,
0,
0,
0,
0,
0,
0,
0,
0,
0,
0,
0,
0,
0,
0,
0,
0,
0,
0,
0,
0,
0,
0,
0,
0,
0,
0,
0,
0,
0,
0,
0,
0,
0,
0,
0,
0,
0,
0,
0,
0,
0,
0,
0,
0,
0,
0,
0,
#ENDOFDATA   :

File: SPI MM2 Tugtupite[4][4].msa
#FORMAT      : EMSA/MAS Spectral Data File
#VERSION     : 1.0
#TITLE       : SPI MM2 Tugtupite[4][all]
#DATE        : 13-MAR-2025
#TIME        : 13:40
#OWNER       : Unknown
#NPOINTS     : 4096
#NCOLUMNS    : 1
#XUNITS      : eV
#YUNITS      : counts
#DATATYPE    : Y
#XPERCHAN    : 9.99778
#OFFSET      : 1.69135
#BEAMKV      : 20
#SIGNALTYPE  : EDS
#ELEVANGLE   : 35
#AZIMANGLE   : 0
#LIVETIME    : 239.892
#REALTIME    : 255.475
#PROBECUR    : 1.0264
#TAUWIND     : 0
#TDEADLYR    : 0
#TACTLYR     : 0.045
#TALWIND     : 0.025
#CHOFFSET    : 0.0
#XLABEL      : Energy (eV)
#YLABEL      : Counts
#XPOSITION   : -4.38597
#YPOSITION   : 3.54127
#ZPOSITION   : 31.03511
#EDSDET      : SD
##SPECIMEN   : SPI MM2 Tugtupite[4][all]
##DET_HASH   : 12273538-fd48-a23f-0a19-f1e6fa85caef
##CALIB_HASH : 6abaa72c-aa41-8738-0be9-f592914732f3
##WORKING    : 15.0 mm
##DET_NAME   : EDAX All
##DET_MODE   : MediumLE
#SPECTRUM    :
24,
254,
8253,
5259,
51724,
2379,
3769,
30369,
8774,
3187,
6154,
18831,
55805,
26463,
2295,
2397,
2717,
2409,
5335,
30367,
5867,
2151,
2005,
2061,
1985,
2080,
1866,
1726,
1679,
1663,
1534,
1636,
1463,
1382,
1361,
1310,
1283,
1229,
1178,
1151,
1107,
1060,
978,
1016,
932,
969,
998,
764,
797,
830,
797,
771,
709,
749,
681,
674,
623,
596,
624,
614,
596,
522,
504,
514,
470,
475,
466,
415,
408,
383,
361,
361,
363,
346,
366,
358,
344,
312,
301,
260,
246,
261,
262,
239,
237,
219,
202,
180,
179,
188,
169,
160,
177,
142,
156,
138,
133,
143,
102,
102,
106,
104,
89,
89,
93,
70,
75,
75,
66,
58,
37,
50,
44,
48,
57,
32,
40,
30,
43,
32,
27,
26,
22,
22,
27,
25,
12,
18,
9,
14,
8,
7,
8,
7,
11,
3,
1,
3,
1,
3,
3,
2,
0,
0,
0,
0,
0,
0,
0,
1,
0,
0,
0,
0,
0,
0,
0,
0,
0,
0,
0,
0,
0,
0,
0,
0,
0,
0,
0,
0,
0,
0,
0,
0,
0,
0,
0,
0,
0,
1,
1,
0,
0,
0,
0,
0,
0,
0,
0,
0,
0,
0,
0,
0,
0,
0,
0,
0,
0,
0,
0,
0,
0,
0,
0,
0,
0,
0,
0,
0,
0,
0,
0,
0,
0,
0,
0,
0,
0,
0,
0,
0,
0,
0,
0,
0,
0,
0,
0,
0,
0,
0,
0,
0,
0,
0,
0,
0,
0,
0,
0,
0,
0,
0,
0,
0,
0,
0,
0,
0,
0,
0,
0,
0,
0,
0,
0,
0,
0,
0,
0,
0,
0,
0,
0,
0,
0,
0,
0,
0,
0,
0,
0,
0,
0,
0,
0,
0,
0,
0,
0,
0,
0,
0,
0,
0,
0,
0,
0,
0,
0,
0,
0,
0,
#ENDOFDATA   :

File: SPI MM2 Tugtupite[5][4].msa
#FORMAT      : EMSA/MAS Spectral Data File
#VERSION     : 1.0
#TITLE       : SPI MM2 Tugtupite[5][all]
#DATE        : 13-MAR-2025
#TIME        : 13:41
#OWNER       : Unknown
#NPOINTS     : 4096
#NCOLUMNS    : 1
#XUNITS      : eV
#YUNITS      : counts
#DATATYPE    : Y
#XPERCHAN    : 9.99778
#OFFSET      : 1.69135
#BEAMKV      : 20
#SIGNALTYPE  : EDS
#ELEVANGLE   : 35
#AZIMANGLE   : 0
#LIVETIME    : 239.862
#REALTIME    : 255.4
#PROBECUR    : 1.0264
#TAUWIND     : 0
#TDEADLYR    : 0
#TACTLYR     : 0.045
#TALWIND     : 0.025
#CHOFFSET    : 0.0
#XLABEL      : Energy (eV)
#YLABEL      : Counts
#XPOSITION   : -4.47263
#YPOSITION   : 3.55898
#ZPOSITION   : 31.03511
#EDSDET      : SD
##SPECIMEN   : SPI MM2 Tugtupite[5][all]
##DET_HASH   : 12273538-fd48-a23f-0a19-f1e6fa85caef
##CALIB_HASH : 6abaa72c-aa41-8738-0be9-f592914732f3
##WORKING    : 15.0 mm
##DET_NAME   : EDAX All
##DET_MODE   : MediumLE
#SPECTRUM    :
25,
219,
8355,
5342,
51349,
2234,
3636,
29904,
8719,
3136,
6194,
18752,
56111,
26782,
2327,
2442,
2684,
2408,
5318,
29706,
5851,
2089,
2030,
2083,
1862,
2056,
1822,
1736,
1655,
1618,
1496,
1576,
1467,
1416,
1393,
1300,
1281,
1258,
1204,
1208,
1139,
1062,
1043,
998,
945,
946,
966,
896,
870,
822,
783,
705,
708,
698,
667,
680,
599,
608,
568,
592,
524,
541,
559,
503,
479,
495,
450,
399,
398,
445,
381,
374,
353,
400,
298,
298,
304,
280,
313,
292,
287,
260,
261,
224,
240,
228,
209,
200,
183,
168,
163,
178,
179,
153,
146,
116,
127,
133,
107,
105,
102,
99,
88,
79,
94,
83,
79,
64,
76,
54,
68,
68,
56,
42,
54,
33,
43,
39,
32,
38,
33,
29,
18,
24,
26,
21,
16,
16,
16,
11,
13,
12,
8,
7,
6,
7,
6,
5,
2,
1,
2,
3,
0,
0,
0,
0,
0,
0,
0,
0,
0,
0,
0,
0,
0,
0,
0,
0,
0,
0,
0,
2,
0,
0,
0,
0,
0,
0,
0,
0,
0,
0,
0,
0,
0,
0,
0,
0,
0,
0,
0,
0,
0,
0,
0,
0,
0,
0,
0,
0,
0,
0,
0,
0,
0,
0,
0,
0,
0,
0,
0,
0,
0,
0,
0,
0,
0,
0,
0,
0,
0,
0,
0,
0,
0,
0,
0,
0,
0,
0,
0,
0,
0,
0,
0,
0,
0,
0,
0,
0,
0,
0,
0,
0,
0,
0,
0,
0,
0,
0,
0,
0,
0,
0,
0,
0,
0,
0,
0,
0,
0,
0,
0,
0,
0,
0,
0,
0,
0,
0,
0,
0,
0,
0,
0,
0,
0,
0,
0,
0,
0,
0,
0,
0,
0,
0,
0,
0,
0,
0,
0,
0,
0,
0,
0,
0,
0,
0,
0,
0,
0,
0,
0,
0,
#ENDOFDATA   :

File: SPI MM2 Tugtupite[6][4].msa
#FORMAT      : EMSA/MAS Spectral Data File
#VERSION     : 1.0
#TITLE       : SPI MM2 Tugtupite[6][all]
#DATE        : 13-MAR-2025
#TIME        : 13:42
#OWNER       : Unknown
#NPOINTS     : 4096
#NCOLUMNS    : 1
#XUNITS      : eV
#YUNITS      : counts
#DATATYPE    : Y
#XPERCHAN    : 9.99778
#OFFSET      : 1.69135
#BEAMKV      : 20
#SIGNALTYPE  : EDS
#ELEVANGLE   : 35
#AZIMANGLE   : 0
#LIVETIME    : 239.784
#REALTIME    : 255.276
#PROBECUR    : 1.0264
#TAUWIND     : 0
#TDEADLYR    : 0
#TACTLYR     : 0.045
#TALWIND     : 0.025
#CHOFFSET    : 0.0
#XLABEL      : Energy (eV)
#YLABEL      : Counts
#XPOSITION   : -4.53002
#YPOSITION   : 3.53472
#ZPOSITION   : 31.03511
#EDSDET      : SD
##SPECIMEN   : SPI MM2 Tugtupite[6][all]
##DET_HASH   : 12273538-fd48-a23f-0a19-f1e6fa85caef
##CALIB_HASH : 6abaa72c-aa41-8738-0be9-f592914732f3
##WORKING    : 15.0 mm
##DET_NAME   : EDAX All
##DET_MODE   : MediumLE
#SPECTRUM    :
24,
202,
8204,
5123,
51051,
2196,
3628,
29718,
8608,
3237,
6281,
18670,
56136,
26414,
2233,
2444,
2743,
2345,
5164,
30192,
6012,
2191,
2011,
1999,
1923,
1926,
1809,
1682,
1697,
1624,
1584,
1506,
1396,
1396,
1388,
1322,
1247,
1187,
1182,
1158,
1097,
1031,
1030,
953,
972,
964,
1006,
866,
816,
858,
802,
741,
698,
701,
670,
603,
566,
632,
615,
548,
549,
525,
494,
528,
491,
466,
442,
456,
391,
398,
368,
385,
379,
354,
339,
351,
292,
315,
271,
278,
281,
262,
237,
224,
222,
237,
204,
205,
221,
182,
176,
171,
148,
139,
128,
140,
127,
112,
114,
94,
94,
86,
73,
80,
78,
86,
79,
60,
73,
60,
62,
54,
51,
53,
54,
43,
28,
29,
29,
30,
35,
40,
33,
14,
21,
13,
17,
21,
22,
13,
19,
8,
18,
6,
7,
3,
3,
6,
4,
3,
0,
0,
0,
0,
0,
0,
0,
0,
0,
0,
0,
0,
0,
0,
0,
0,
0,
0,
0,
0,
0,
0,
0,
0,
0,
0,
0,
0,
0,
0,
0,
0,
0,
0,
0,
0,
0,
0,
0,
0,
0,
0,
0,
0,
0,
0,
0,
0,
0,
0,
0,
0,
0,
0,
0,
0,
0,
0,
0,
0,
0,
0,
0,
0,
0,
0,
0,
0,
0,
0,
0,
0,
0,
0,
0,
0,
0,
0,
0,
0,
0,
0,
0,
0,
0,
0,
0,
0,
0,
0,
0,
0,
0,
0,
0,
0,
0,
0,
0,
0,
0,
0,
0,
0,
0,
0,
0,
0,
0,
0,
0,
0,
0,
0,
0,
0,
0,
0,
0,
0,
0,
0,
0,
0,
0,
0,
0,
0,
0,
0,
0,
0,
0,
0,
0,
0,
0,
0,
0,
0,
0,
0,
0,
0,
0,
0,
0,
0,
0,
0,
0,
0,
0,
0,
#ENDOFDATA   :

File: SPI MM2 Tugtupite[7][4].msa
#FORMAT      : EMSA/MAS Spectral Data File
#VERSION     : 1.0
#TITLE       : SPI MM2 Tugtupite[7][all]
#DATE        : 13-MAR-2025
#TIME        : 13:43
#OWNER       : Unknown
#NPOINTS     : 4096
#NCOLUMNS    : 1
#XUNITS      : eV
#YUNITS      : counts
#DATATYPE    : Y
#XPERCHAN    : 9.99778
#OFFSET      : 1.69135
#BEAMKV      : 20
#SIGNALTYPE  : EDS
#ELEVANGLE   : 35
#AZIMANGLE   : 0
#LIVETIME    : 239.816
#REALTIME    : 255.331
#PROBECUR    : 1.0264
#TAUWIND     : 0
#TDEADLYR    : 0
#TACTLYR     : 0.045
#TALWIND     : 0.025
#CHOFFSET    : 0.0
#XLABEL      : Energy (eV)
#YLABEL      : Counts
#XPOSITION   : -4.52801
#YPOSITION   : 3.59451
#ZPOSITION   : 31.03511
#EDSDET      : SD
##SPECIMEN   : SPI MM2 Tugtupite[7][all]
##DET_HASH   : 12273538-fd48-a23f-0a19-f1e6fa85caef
##CALIB_HASH : 6abaa72c-aa41-8738-0be9-f592914732f3
##WORKING    : 15.0 mm
##DET_NAME   : EDAX All
##DET_MODE   : MediumLE
#SPECTRUM    :
18,
231,
8508,
5330,
50937,
2349,
3630,
29632,
8694,
3222,
6138,
18720,
55598,
26218,
2315,
2340,
2714,
2430,
5234,
29860,
6032,
2128,
2009,
2045,
1773,
1982,
1934,
1735,
1660,
1581,
1530,
1496,
1448,
1475,
1311,
1345,
1179,
1177,
1231,
1089,
1113,
1051,
1034,
1013,
953,
989,
960,
837,
844,
814,
759,
730,
699,
739,
689,
626,
613,
612,
550,
629,
560,
533,
505,
503,
488,
443,
461,
415,
457,
419,
419,
327,
376,
370,
326,
339,
321,
296,
293,
289,
275,
247,
239,
232,
239,
209,
224,
209,
206,
199,
209,
170,
154,
141,
135,
146,
116,
117,
120,
109,
105,
87,
91,
84,
100,
84,
67,
66,
63,
57,
58,
57,
51,
52,
41,
46,
39,
39,
36,
43,
28,
24,
28,
19,
25,
27,
17,
14,
17,
7,
11,
6,
9,
9,
6,
5,
6,
5,
3,
3,
3,
0,
1,
0,
0,
0,
0,
0,
0,
0,
0,
0,
0,
0,
0,
0,
0,
0,
0,
0,
0,
0,
0,
0,
0,
0,
0,
0,
0,
0,
0,
0,
0,
0,
0,
0,
0,
0,
0,
0,
0,
0,
0,
0,
0,
0,
0,
0,
0,
0,
0,
0,
0,
0,
0,
0,
0,
0,
0,
0,
0,
0,
0,
0,
0,
0,
0,
0,
0,
0,
0,
0,
0,
0,
0,
0,
0,
0,
0,
0,
0,
0,
0,
0,
0,
0,
0,
0,
0,
0,
0,
0,
0,
0,
0,
0,
0,
0,
0,
0,
0,
0,
0,
0,
0,
0,
0,
0,
0,
0,
0,
0,
0,
0,
0,
0,
0,
0,
0,
0,
0,
0,
0,
0,
0,
0,
0,
0,
0,
0,
0,
0,
0,
0,
0,
0,
0,
0,
0,
0,
0,
0,
0,
0,
0,
0,
0,
0,
0,
0,
0,
0,
0,
0,
#ENDOFDATA   :

File: SPI MM2 Uvarovite[0][4].msa
#FORMAT      : EMSA/MAS Spectral Data File
#VERSION     : 1.0
#TITLE       : SPI MM2 Uvarovite[0][all]
#DATE        : 13-MAR-2025
#TIME        : 14:12
#OWNER       : Unknown
#NPOINTS     : 4096
#NCOLUMNS    : 1
#XUNITS      : eV
#YUNITS      : counts
#DATATYPE    : Y
#XPERCHAN    : 9.99778
#OFFSET      : 1.69135
#BEAMKV      : 20
#SIGNALTYPE  : EDS
#ELEVANGLE   : 35
#AZIMANGLE   : 0
#LIVETIME    : 239.874
#REALTIME    : 255.395
#PROBECUR    : 1.02609
#TAUWIND     : 0
#TDEADLYR    : 0
#TACTLYR     : 0.045
#TALWIND     : 0.025
#CHOFFSET    : 0.0
#XLABEL      : Energy (eV)
#YLABEL      : Counts
#XPOSITION   : 5.76431
#YPOSITION   : 6.40179
#ZPOSITION   : 31.03511
#EDSDET      : SD
##SPECIMEN   : SPI MM2 Uvarovite[0][all]
##DET_HASH   : 12273538-fd48-a23f-0a19-f1e6fa85caef
##CALIB_HASH : 6abaa72c-aa41-8738-0be9-f592914732f3
##WORKING    : 15.0 mm
##DET_NAME   : EDAX All
##DET_MODE   : MediumLE
#SPECTRUM    :
28,
189,
13547,
4053,
32059,
2701,
2565,
2977,
3533,
4285,
6000,
13475,
43970,
21780,
4441,
3308,
3595,
3175,
3145,
3100,
3032,
2977,
2908,
2911,
2712,
3248,
64250,
22107,
4808,
11408,
1958,
1827,
3739,
1898,
1684,
2284,
1823,
1730,
8663,
22091,
1544,
1457,
3502,
2963,
1174,
1605,
2425,
1086,
1039,
1026,
1164,
1137,
895,
966,
896,
909,
819,
822,
808,
790,
757,
677,
706,
696,
646,
675,
594,
596,
639,
533,
553,
490,
482,
499,
417,
438,
448,
433,
385,
414,
359,
351,
304,
325,
305,
303,
297,
306,
260,
255,
248,
266,
222,
228,
168,
200,
190,
203,
152,
171,
152,
140,
136,
136,
139,
105,
115,
114,
89,
83,
65,
66,
79,
78,
52,
74,
59,
66,
51,
45,
47,
38,
31,
29,
41,
39,
23,
24,
18,
26,
13,
18,
17,
8,
13,
11,
9,
7,
6,
5,
4,
4,
1,
0,
1,
0,
0,
1,
1,
0,
1,
1,
0,
0,
0,
1,
0,
0,
0,
0,
0,
0,
1,
0,
0,
2,
0,
0,
0,
0,
0,
0,
0,
0,
0,
0,
0,
0,
0,
0,
0,
0,
0,
0,
0,
0,
0,
0,
0,
0,
0,
0,
0,
0,
0,
0,
0,
0,
0,
0,
0,
0,
0,
0,
0,
0,
0,
0,
0,
0,
0,
0,
0,
0,
0,
0,
0,
0,
0,
0,
0,
0,
0,
0,
0,
0,
0,
0,
0,
0,
0,
0,
0,
0,
0,
0,
0,
0,
0,
0,
0,
0,
0,
0,
0,
0,
0,
0,
0,
0,
0,
0,
0,
0,
0,
0,
0,
0,
0,
0,
0,
0,
0,
0,
0,
0,
0,
0,
0,
0,
0,
0,
0,
0,
0,
0,
0,
0,
0,
0,
0,
0,
0,
0,
0,
0,
0,
0,
0,
0,
0,
0,
0,
0,
#ENDOFDATA   :

File: SPI MM2 Uvarovite[1][4].msa
#FORMAT      : EMSA/MAS Spectral Data File
#VERSION     : 1.0
#TITLE       : SPI MM2 Uvarovite[1][all]
#DATE        : 13-MAR-2025
#TIME        : 14:13
#OWNER       : Unknown
#NPOINTS     : 4096
#NCOLUMNS    : 1
#XUNITS      : eV
#YUNITS      : counts
#DATATYPE    : Y
#XPERCHAN    : 9.99778
#OFFSET      : 1.69135
#BEAMKV      : 20
#SIGNALTYPE  : EDS
#ELEVANGLE   : 35
#AZIMANGLE   : 0
#LIVETIME    : 239.897
#REALTIME    : 255.395
#PROBECUR    : 1.02609
#TAUWIND     : 0
#TDEADLYR    : 0
#TACTLYR     : 0.045
#TALWIND     : 0.025
#CHOFFSET    : 0.0
#XLABEL      : Energy (eV)
#YLABEL      : Counts
#XPOSITION   : 5.73735
#YPOSITION   : 6.33131
#ZPOSITION   : 31.03511
#EDSDET      : SD
##SPECIMEN   : SPI MM2 Uvarovite[1][all]
##DET_HASH   : 12273538-fd48-a23f-0a19-f1e6fa85caef
##CALIB_HASH : 6abaa72c-aa41-8738-0be9-f592914732f3
##WORKING    : 15.0 mm
##DET_NAME   : EDAX All
##DET_MODE   : MediumLE
#SPECTRUM    :
22,
174,
13546,
4139,
32457,
2745,
2433,
2893,
3533,
4224,
6172,
13323,
43709,
21441,
4527,
3400,
3510,
3335,
3121,
3122,
3030,
2905,
2938,
2931,
2725,
3335,
63841,
22101,
4979,
11308,
1957,
1847,
3914,
1914,
1717,
2290,
1766,
1555,
8761,
22174,
1465,
1450,
3439,
2871,
1167,
1589,
2523,
1120,
1121,
1095,
1131,
1140,
942,
953,
952,
876,
848,
795,
734,
700,
721,
717,
736,
630,
583,
603,
609,
628,
588,
531,
525,
489,
491,
459,
459,
466,
412,
409,
395,
337,
373,
365,
322,
305,
302,
299,
306,
279,
276,
255,
257,
240,
221,
236,
180,
211,
166,
188,
182,
151,
141,
140,
132,
137,
121,
117,
112,
93,
98,
117,
112,
83,
72,
54,
65,
55,
52,
58,
48,
52,
44,
34,
46,
25,
32,
33,
31,
26,
25,
21,
16,
16,
15,
16,
4,
12,
16,
4,
10,
3,
4,
3,
0,
1,
0,
0,
0,
0,
0,
0,
0,
0,
1,
0,
0,
0,
0,
0,
0,
0,
0,
0,
1,
0,
0,
0,
0,
0,
0,
0,
0,
0,
0,
0,
0,
0,
0,
0,
0,
0,
0,
0,
0,
0,
0,
0,
0,
0,
0,
0,
0,
1,
0,
0,
0,
0,
0,
0,
0,
0,
0,
0,
0,
0,
0,
0,
0,
0,
0,
0,
0,
0,
0,
0,
0,
0,
0,
0,
0,
0,
0,
0,
0,
0,
0,
0,
0,
0,
0,
0,
0,
0,
0,
0,
0,
0,
0,
0,
0,
0,
0,
0,
0,
0,
0,
0,
0,
0,
0,
0,
0,
0,
0,
0,
0,
0,
0,
0,
0,
0,
0,
0,
0,
0,
0,
0,
0,
0,
0,
0,
0,
0,
0,
0,
0,
0,
0,
0,
0,
0,
0,
0,
0,
0,
0,
0,
0,
0,
0,
0,
0,
0,
0,
0,
#ENDOFDATA   :

File: SPI MM2 Uvarovite[2][4].msa
#FORMAT      : EMSA/MAS Spectral Data File
#VERSION     : 1.0
#TITLE       : SPI MM2 Uvarovite[2][all]
#DATE        : 13-MAR-2025
#TIME        : 14:14
#OWNER       : Unknown
#NPOINTS     : 4096
#NCOLUMNS    : 1
#XUNITS      : eV
#YUNITS      : counts
#DATATYPE    : Y
#XPERCHAN    : 9.99778
#OFFSET      : 1.69135
#BEAMKV      : 20
#SIGNALTYPE  : EDS
#ELEVANGLE   : 35
#AZIMANGLE   : 0
#LIVETIME    : 239.791
#REALTIME    : 255.281
#PROBECUR    : 1.02609
#TAUWIND     : 0
#TDEADLYR    : 0
#TACTLYR     : 0.045
#TALWIND     : 0.025
#CHOFFSET    : 0.0
#XLABEL      : Energy (eV)
#YLABEL      : Counts
#XPOSITION   : 5.73304
#YPOSITION   : 6.43756
#ZPOSITION   : 31.03511
#EDSDET      : SD
##SPECIMEN   : SPI MM2 Uvarovite[2][all]
##DET_HASH   : 12273538-fd48-a23f-0a19-f1e6fa85caef
##CALIB_HASH : 6abaa72c-aa41-8738-0be9-f592914732f3
##WORKING    : 15.0 mm
##DET_NAME   : EDAX All
##DET_MODE   : MediumLE
#SPECTRUM    :
24,
171,
13484,
4105,
32136,
2707,
2521,
3046,
3603,
4425,
6029,
13100,
43775,
21493,
4419,
3372,
3562,
3329,
3206,
3217,
3088,
2976,
2971,
2922,
2709,
3205,
63910,
22202,
4991,
11538,
1947,
1791,
4358,
1928,
1684,
2281,
1680,
1681,
8953,
22501,
1513,
1435,
3442,
2931,
1180,
1517,
2430,
1140,
1043,
1027,
1113,
1080,
1014,
910,
905,
877,
834,
750,
808,
749,
765,
717,
668,
651,
637,
638,
541,
612,
579,
579,
530,
489,
497,
472,
477,
413,
444,
444,
434,
352,
368,
364,
350,
333,
320,
320,
263,
277,
262,
224,
237,
232,
219,
216,
226,
190,
196,
182,
156,
144,
145,
173,
139,
125,
123,
134,
106,
99,
100,
87,
80,
88,
83,
74,
56,
72,
58,
72,
53,
59,
40,
40,
30,
38,
30,
19,
33,
31,
13,
31,
22,
13,
16,
17,
15,
11,
11,
4,
5,
4,
1,
2,
2,
0,
0,
0,
0,
0,
1,
2,
0,
0,
0,
0,
1,
0,
1,
1,
0,
0,
1,
0,
0,
0,
0,
0,
0,
0,
0,
0,
0,
0,
0,
0,
0,
0,
0,
0,
0,
0,
0,
0,
0,
0,
0,
0,
0,
0,
0,
0,
0,
0,
0,
0,
0,
0,
0,
0,
0,
1,
0,
0,
0,
1,
0,
0,
0,
0,
0,
0,
0,
0,
0,
0,
0,
0,
0,
0,
0,
0,
0,
0,
0,
0,
0,
0,
0,
0,
0,
0,
0,
0,
0,
0,
0,
0,
0,
0,
0,
0,
0,
0,
0,
0,
0,
0,
0,
0,
0,
0,
0,
0,
0,
0,
0,
0,
0,
0,
0,
0,
0,
0,
0,
0,
0,
0,
0,
0,
0,
0,
0,
0,
0,
0,
0,
0,
0,
0,
0,
0,
0,
0,
0,
0,
0,
0,
0,
0,
0,
0,
0,
0,
0,
0,
#ENDOFDATA   :