Folder: spex_quant/N132962/Quantification/20 keV/MMM2

Note: N132962/Quantification/20 keV/MMM2/c.txt
Configuration:
	Username: Nicholas W. M. Ritchie
	Timestamp: 2025-10-23 12:56:23
	Application: spex version 0.0.121
	References: `N132962 20 keV` revision 88 - 2025-10-23 11:16:18 -04:00
Configuration warnings:
    None
Spectrum:
	SPI MM2 C[0][all]['SPI MM2 C[0][4].msa']
Fit warnings:
    None
Quantification results:
╭───────────────────┬─────────┬───┬────────┬─────────────────┬─────────┬─────────╮
│ Name              ┆ Element ┆ Z ┆ A      ┆ C[z]            ┆ N[z]    ┆ A[z]    │
╞═══════════════════╪═════════╪═══╪════════╪═════════════════╪═════════╪═════════╡
│ SPI MM2 C[0][all] ┆ C       ┆ 6 ┆ 12.011 ┆ 1.0002 ± 0.0099 ┆ 1.00000 ┆ 1.00000 │
╰───────────────────┴─────────┴───┴────────┴─────────────────┴─────────┴─────────╯
Notes:
	Analytical total: 1.0002 ± 0.0099
	Duane-Hunt: 20.20 keV
	Residual written to SPI MM2 C[0][4][residual].msa.
	Plot output to 'SPI MM2 C[0][4][quantify].pdf'
Spectrum:
	SPI MM2 C[1][all]['SPI MM2 C[1][4].msa']
Fit warnings:
    None
Quantification results:
╭───────────────────┬─────────┬───┬────────┬───────────────┬─────────┬─────────╮
│ Name              ┆ Element ┆ Z ┆ A      ┆ C[z]          ┆ N[z]    ┆ A[z]    │
╞═══════════════════╪═════════╪═══╪════════╪═══════════════╪═════════╪═════════╡
│ SPI MM2 C[1][all] ┆ C       ┆ 6 ┆ 12.011 ┆ 1.018 ± 0.011 ┆ 1.00000 ┆ 1.00000 │
╰───────────────────┴─────────┴───┴────────┴───────────────┴─────────┴─────────╯
Notes:
	Analytical total: 1.018 ± 0.011
	Duane-Hunt: 20.05 keV
	Residual written to SPI MM2 C[1][4][residual].msa.
	Plot output to 'SPI MM2 C[1][4][quantify].pdf'
Spectrum:
	SPI MM2 C[2][all]['SPI MM2 C[2][4].msa']
Fit warnings:
    None
Quantification results:
╭───────────────────┬─────────┬───┬────────┬───────────────┬─────────┬─────────╮
│ Name              ┆ Element ┆ Z ┆ A      ┆ C[z]          ┆ N[z]    ┆ A[z]    │
╞═══════════════════╪═════════╪═══╪════════╪═══════════════╪═════════╪═════════╡
│ SPI MM2 C[2][all] ┆ C       ┆ 6 ┆ 12.011 ┆ 1.019 ± 0.011 ┆ 1.00000 ┆ 1.00000 │
╰───────────────────┴─────────┴───┴────────┴───────────────┴─────────┴─────────╯
Notes:
	Analytical total: 1.019 ± 0.011
	Duane-Hunt: 20.09 keV
	Residual written to SPI MM2 C[2][4][residual].msa.
	Plot output to 'SPI MM2 C[2][4][quantify].pdf'
Spectrum:
	SPI MM2 C[3][all]['SPI MM2 C[3][4].msa']
Fit warnings:
    None
Quantification results:
╭───────────────────┬─────────┬───┬────────┬───────────────┬─────────┬─────────╮
│ Name              ┆ Element ┆ Z ┆ A      ┆ C[z]          ┆ N[z]    ┆ A[z]    │
╞═══════════════════╪═════════╪═══╪════════╪═══════════════╪═════════╪═════════╡
│ SPI MM2 C[3][all] ┆ C       ┆ 6 ┆ 12.011 ┆ 1.019 ± 0.011 ┆ 1.00000 ┆ 1.00000 │
╰───────────────────┴─────────┴───┴────────┴───────────────┴─────────┴─────────╯
Notes:
	Analytical total: 1.019 ± 0.011
	Duane-Hunt: 20.20 keV
	Residual written to SPI MM2 C[3][4][residual].msa.
	Plot output to 'SPI MM2 C[3][4][quantify].pdf'
Spectrum:
	SPI MM2 C[4][all]['SPI MM2 C[4][4].msa']
Fit warnings:
    None
Quantification results:
╭

Note: N132962/Quantification/20 keV/MMM2/magnetite.txt
Configuration:
	Username: Nicholas W. M. Ritchie
	Timestamp: 2025-10-23 12:56:25
	Application: spex version 0.0.121
	References: `N132962 20 keV` revision 88 - 2025-10-23 11:16:18 -04:00
Configuration warnings:
    None
Spectrum:
	SPI MM2 SPI Magnetite[0][all]['SPI MM2 SPI Magnetite[0][4].msa']
Fit warnings:
	The k-ratio '[Mn L₃-M₅ + 13 others] = -0.03475 ± 0.00083' is more than 3σ negative.
Quantification results:
╭───────────────────────────────┬─────────┬────┬───────────┬─────────────────────┬─────────────────────┬─────────────────────╮
│ Name                          ┆ Element ┆ Z  ┆ A         ┆ C[z]                ┆ N[z]                ┆ A[z]                │
╞═══════════════════════════════╪═════════╪════╪═══════════╪═════════════════════╪═════════════════════╪═════════════════════╡
│ SPI MM2 SPI Magnetite[0][all] ┆ O       ┆ 8  ┆ 15.999    ┆ 0.276 ± 0.021       ┆ 0.275 ± 0.015       ┆ 0.570 ± 0.018       │
├╌╌╌╌╌╌╌╌╌╌╌╌╌╌╌╌╌╌╌╌╌╌╌╌╌╌╌╌╌╌╌┼╌╌╌╌╌╌╌╌╌┼╌╌╌╌┼╌╌╌╌╌╌╌╌╌╌╌┼╌╌╌╌╌╌╌╌╌╌╌╌╌╌╌╌╌╌╌╌╌┼╌╌╌╌╌╌╌╌╌╌╌╌╌╌╌╌╌╌╌╌╌┼╌╌╌╌╌╌╌╌╌╌╌╌╌╌╌╌╌╌╌╌╌┤
│ SPI MM2 SPI Magnetite[0][all] ┆ Si      ┆ 14 ┆ 28.085    ┆ 0.000724 ± 0.000028 ┆ 0.000723 ± 0.000032 ┆ 0.000852 ± 0.000049 │
├╌╌╌╌╌╌╌╌╌╌╌╌╌╌╌╌╌╌╌╌╌╌╌╌╌╌╌╌╌╌╌┼╌╌╌╌╌╌╌╌╌┼╌╌╌╌┼╌╌╌╌╌╌╌╌╌╌╌┼╌╌╌╌╌╌╌╌╌╌╌╌╌╌╌╌╌╌╌╌╌┼╌╌╌╌╌╌╌╌╌╌╌╌╌╌╌╌╌╌╌╌╌┼╌╌╌╌╌╌╌╌╌╌╌╌╌╌╌╌╌╌╌╌╌┤
│ SPI MM2 SPI Magnetite[0][all] ┆ Mn      ┆ 25 ┆ 54.938043 ┆ 0.002638 ± 0.000037 ┆ 0.002636 ± 0.000065 ┆ 0.001589 ± 0.000071 │
├╌╌╌╌╌╌╌╌╌╌╌╌╌╌╌╌╌╌╌╌╌╌╌╌╌╌╌╌╌╌╌┼╌╌╌╌╌╌╌╌╌┼╌╌╌╌┼╌╌╌╌╌╌╌╌╌╌╌┼╌╌╌╌╌╌╌╌╌╌╌╌╌╌╌╌╌╌╌╌╌┼╌╌╌╌╌╌╌╌╌╌╌╌╌╌╌╌╌╌╌╌╌┼╌╌╌╌╌╌╌╌╌╌╌╌╌╌╌╌╌╌╌╌╌┤
│ SPI MM2 SPI Magnetite[0][all] ┆ Fe      ┆ 26 ┆ 55.845    ┆ 0.72202 ± 0.00023   ┆ 0.721 ± 0.015       ┆ 0.428 ± 0.018       │
╰───────────────────────────────┴─────────┴────┴───────────┴─────────────────────┴─────────────────────┴─────────────────────╯
Notes:
	Analytical total: 1.001 ± 0.021
	Duane-Hunt: 19.97 keV
	Residual written to SPI MM2 SPI Magnetite[0][4][residual].msa.
	Plot output to 'SPI MM2 SPI Magnetite[0][4][quantify].pdf'
Spectrum:
	SPI MM2 SPI Magnetite[1][all]['SPI MM2 SPI Magnetite[1][4].msa']
Fit warnings:
	The k-ratio '[Mn L₃-M₅ + 13 others] = -0.03186 ± 0.00083' is more than 3σ negative.
Quantification results:
╭───────────────────────────────┬─────────┬────┬───────────┬─────────────────────┬─────────────────────┬─────────────────────╮
│ Name                          ┆ Element ┆ Z  ┆ A         ┆ C[z]                ┆ N[z]                ┆ A[z]                │
╞═══════════════════════════════╪═════════╪════╪═══════════╪═════════════════════╪═════════════════════╪═════════════════════╡
│ SPI MM2 SPI Magnetite[1][all] ┆ O       ┆ 8  ┆ 15.999    ┆ 0.276 ± 0.021       ┆ 0.275 ± 0.015       ┆ 0.570 ± 0.018       │
├╌╌╌╌╌╌╌╌╌╌╌╌╌╌╌╌╌╌╌╌╌╌╌╌╌╌╌╌╌╌╌┼╌╌╌╌╌╌╌╌╌┼╌╌╌╌┼╌╌╌╌╌╌╌╌╌╌╌┼╌╌╌╌╌╌╌╌╌╌╌╌╌╌╌╌╌╌╌╌╌┼╌╌╌╌╌╌╌╌╌╌╌╌╌╌╌╌╌╌╌╌╌┼╌╌╌╌╌╌╌╌╌╌╌╌╌╌╌╌╌╌╌╌╌┤
│ SPI MM2 SPI Magnetite[1][all] ┆ Si      ┆ 14 ┆ 28.085    ┆ 0.000790 ± 0.000028 ┆ 0.000789 ± 0.000033 ┆ 0.000930 ± 0.000052 │
├╌╌╌╌╌╌╌╌╌╌╌╌╌╌╌╌╌╌╌╌╌╌╌╌╌╌╌╌╌╌╌┼╌╌╌

Note: README.md
# spex_quant
Spectral data for evaluating `spex`.  It contains both standard spectra and sample spectra.

 * N132962 represents the TESCAN MIRA4 with 4 silicon nitride window silicon drift detectors in 217 D113 at NIST Gaitherburg.
  * Reference set: "N132962 20 keV" built using 'n132962_20keV.bat' for 20 keV analyses

File: C std.msa
#FORMAT      : EMSA/MAS Spectral Data File
#VERSION     : 1.0
#TITLE       : C standard for 'N132962' detector
#NPOINTS     : 4096
#NCOLUMNS    : 1
#XUNITS      : eV
#YUNITS      : counts
#DATATYPE    : Y
#SIGNALTYPE  : EDS
#XLABEL      : Energy (eV)
#YLABEL      : Counts
#XPERCHAN -eV: 9.99778
#OFFSET   -eV: 1.69135
#CHOFFSET    : 0
#DATE        : 13-Mar-2025
#TIME        : 14:29:00
#OWNER       : Unknown
#ELEVANGLE   : 35
#BEAMKV   -kV: 20
#LIVETIME  -s: 1440
#REALTIME  -s: 1505.5
#PROBECUR -nA: 1.02609
##WORKING -mm: 15
##D2STDCMP   : C,(C:100.0000)
##SIMILAR    : 1.6
#SPECTRUM    :
139,
5726,
2671832,
3319,
13745,
7222,
9288,
11631,
13902,
14906,
15762,
15669,
15426,
14470,
12172,
11616,
10860,
10394,
9508,
8963,
8290,
7952,
7625,
7088,
6777,
6267,
6039,
5579,
5425,
5232,
4915,
4665,
4502,
4254,
3996,
3915,
3822,
3481,
3474,
3326,
3120,
3095,
2836,
2758,
2712,
2664,
2837,
2334,
2215,
2271,
2161,
2044,
1935,
1972,
1821,
1748,
1640,
1655,
1559,
1523,
1433,
1382,
1325,
1230,
1251,
1166,
1107,
1094,
1024,
972,
1018,
948,
854,
835,
805,
796,
763,
736,
724,
628,
665,
643,
622,
607,
549,
501,
530,
447,
461,
429,
407,
389,
378,
351,
363,
315,
293,
259,
267,
240,
246,
230,
176,
226,
176,
152,
164,
141,
145,
124,
110,
119,
118,
120,
92,
104,
95,
79,
60,
77,
73,
68,
38,
41,
42,
44,
37,
35,
27,
22,
33,
16,
25,
13,
17,
12,
11,
4,
8,
8,
3,
4,
1,
0,
0,
0,
0,
0,
0,
0,
0,
0,
0,
0,
1,
0,
0,
0,
0,
0,
0,
0,
0,
0,
0,
0,
0,
0,
1,
0,
0,
0,
0,
0,
0,
0,
0,
0,
0,
0,
0,
0,
0,
0,
0,
0,
0,
0,
0,
0,
0,
0,
0,
0,
0,
0,
0,
0,
0,
0,
0,
0,
0,
0,
0,
0,
0,
0,
0,
0,
0,
0,
0,
0,
0,
0,
0,
0,
0,
0,
0,
0,
0,
0,
0,
0,
0,
0,
0,
0,
0,
0,
0,
0,
0,
0,
0,
0,
0,
0,
0,
0,
0,
0,
0,
0,
0,
0,
0,
0,
0,
0,
0,
0,
0,
0,
0,
0,
0,
0,
0,
0,
0,
0,
0,
0,
0,
0,
0,
0,
0,
0,
0,
0,
0,
0,
0,
0,
0,
0,
0,
0,
0,
0,
0,
0,
0,
0,
0,
0,
0,
0,
0,
0,
#ENDOFDATA   :

File: FeS std.msa
#FORMAT      : EMSA/MAS Spectral Data File
#VERSION     : 1.0
#TITLE       : FeS standard for 'N132962' detector
#NPOINTS     : 4096
#NCOLUMNS    : 1
#XUNITS      : eV
#YUNITS      : counts
#DATATYPE    : Y
#SIGNALTYPE  : EDS
#XLABEL      : Energy (eV)
#YLABEL      : Counts
#XPERCHAN -eV: 9.99778
#OFFSET   -eV: 1.69135
#CHOFFSET    : 0
#DATE        : 13-Mar-2025
#TIME        : 12:57:00
#OWNER       : Unknown
#ELEVANGLE   : 35
#BEAMKV   -kV: 20
#LIVETIME  -s: 1918.82
#REALTIME  -s: 2096.41
#PROBECUR -nA: 1.02627
##WORKING -mm: 15
##D2STDCMP   : FeS,(S:36.4712),(Fe:63.5288)
##SIMILAR    : 1.5
#SPECTRUM    :
166,
5915,
86343,
21442,
134083,
504302,
28858,
28851,
34377,
39351,
44178,
46951,
49983,
51549,
48148,
51367,
857242,
666153,
113696,
24867,
25256,
26751,
26147,
25002,
24217,
24383,
24263,
23546,
23035,
22338,
22388,
21484,
21706,
29213,
21127,
19554,
18897,
18071,
18137,
17704,
16826,
16360,
15934,
15963,
17207,
182707,
551313,
19801,
13987,
15535,
74624,
43719,
10611,
11006,
10287,
9811,
9701,
9474,
9066,
8963,
8466,
8509,
10048,
8515,
7817,
7464,
7383,
7431,
7025,
6521,
6476,
6087,
6100,
5781,
5621,
5381,
5253,
5139,
4909,
4816,
4603,
4422,
4324,
4184,
3834,
3694,
3672,
3595,
3376,
3256,
3127,
3254,
3018,
2715,
2551,
2492,
2446,
2388,
2155,
2056,
2017,
1859,
1784,
1750,
1598,
1541,
1395,
1380,
1291,
1265,
1167,
1065,
1037,
999,
946,
796,
810,
753,
672,
624,
620,
612,
548,
481,
427,
444,
397,
377,
320,
286,
280,
235,
215,
202,
171,
138,
121,
92,
104,
49,
50,
41,
30,
9,
11,
8,
9,
4,
4,
4,
2,
9,
5,
4,
4,
5,
2,
3,
4,
2,
1,
2,
1,
0,
3,
2,
3,
0,
0,
0,
3,
3,
0,
0,
1,
0,
2,
2,
2,
2,
1,
2,
2,
2,
0,
1,
2,
1,
1,
0,
1,
0,
0,
1,
0,
0,
1,
0,
0,
0,
0,
0,
0,
0,
1,
0,
0,
0,
0,
0,
0,
0,
0,
0,
0,
0,
0,
0,
0,
0,
1,
0,
0,
0,
0,
0,
0,
0,
0,
0,
0,
0,
0,
0,
0,
0,
0,
0,
0,
0,
0,
0,
0,
0,
0,
0,
0,
0,
0,
0,
0,
0,
0,
0,
0,
0,
0,
0,
0,
0,
0,
0,
0,
0,
0,
0,
0,
0,
0,
0,
0,
0,
0,
0,
0,
0,
0,
0,
0,
0,
0,
0,
0,
0,
0,
0,
0,
0,
0,
0,
0,
0,
0,
0,
#ENDOFDATA   :

File: SPI MM2 C[1][4].msa
#FORMAT      : EMSA/MAS Spectral Data File
#VERSION     : 1.0
#TITLE       : SPI MM2 C[1][all]
#DATE        : 13-MAR-2025
#TIME        : 14:22
#OWNER       : Unknown
#NPOINTS     : 4096
#NCOLUMNS    : 1
#XUNITS      : eV
#YUNITS      : counts
#DATATYPE    : Y
#XPERCHAN    : 9.99778
#OFFSET      : 1.69135
#BEAMKV      : 20
#SIGNALTYPE  : EDS
#ELEVANGLE   : 35
#AZIMANGLE   : 0
#LIVETIME    : 240.006
#REALTIME    : 250.916
#PROBECUR    : 1.02609
#TAUWIND     : 0
#TDEADLYR    : 0
#TACTLYR     : 0.045
#TALWIND     : 0.025
#CHOFFSET    : 0.0
#XLABEL      : Energy (eV)
#YLABEL      : Counts
#XPOSITION   : 3.26382
#YPOSITION   : 8.85048
#ZPOSITION   : 31.03511
#EDSDET      : SD
##SPECIMEN   : SPI MM2 C[1][all]
##D2STDCMP   : C,(C:100.0)
##DET_HASH   : 12273538-fd48-a23f-0a19-f1e6fa85caef
##CALIB_HASH : 6abaa72c-aa41-8738-0be9-f592914732f3
##WORKING    : 15.0 mm
##DET_NAME   : EDAX All
##DET_MODE   : MediumLE
#SPECTRUM    :
24,
917,
446065,
568,
2348,
1195,
1518,
1908,
2317,
2425,
2642,
2623,
2546,
2407,
2068,
1941,
1818,
1761,
1585,
1481,
1456,
1278,
1242,
1128,
1153,
1093,
1035,
931,
930,
883,
828,
796,
765,
731,
670,
645,
642,
586,
587,
597,
518,
523,
434,
465,
434,
445,
502,
393,
384,
382,
340,
319,
346,
368,
305,
276,
274,
285,
281,
221,
226,
219,
220,
207,
200,
198,
176,
169,
173,
149,
170,
168,
147,
133,
137,
125,
139,
129,
120,
95,
90,
117,
116,
100,
99,
82,
89,
77,
70,
78,
51,
64,
50,
64,
66,
56,
48,
55,
59,
46,
33,
46,
37,
40,
15,
25,
26,
14,
36,
15,
22,
24,
20,
17,
19,
22,
19,
11,
10,
11,
10,
12,
4,
5,
7,
10,
6,
2,
1,
3,
6,
3,
5,
1,
2,
0,
1,
0,
2,
2,
0,
0,
0,
0,
0,
0,
0,
0,
0,
0,
0,
0,
0,
0,
0,
0,
0,
0,
0,
0,
0,
0,
0,
0,
0,
0,
0,
0,
0,
0,
0,
0,
0,
0,
0,
0,
0,
0,
0,
0,
0,
0,
0,
0,
0,
0,
0,
0,
0,
0,
0,
0,
0,
0,
0,
0,
0,
0,
0,
0,
0,
0,
0,
0,
0,
0,
0,
0,
0,
0,
0,
0,
0,
0,
0,
0,
0,
0,
0,
0,
0,
0,
0,
0,
0,
0,
0,
0,
0,
0,
0,
0,
0,
0,
0,
0,
0,
0,
0,
0,
0,
0,
0,
0,
0,
0,
0,
0,
0,
0,
0,
0,
0,
0,
0,
0,
0,
0,
0,
0,
0,
0,
0,
0,
0,
0,
0,
0,
0,
0,
0,
0,
0,
0,
0,
0,
0,
0,
0,
0,
0,
0,
0,
0,
0,
0,
0,
0,
0,
0,
0,
0,
0,
0,
#ENDOFDATA   :

File: SPI MM2 C[2][4].msa
#FORMAT      : EMSA/MAS Spectral Data File
#VERSION     : 1.0
#TITLE       : SPI MM2 C[2][all]
#DATE        : 13-MAR-2025
#TIME        : 14:23
#OWNER       : Unknown
#NPOINTS     : 4096
#NCOLUMNS    : 1
#XUNITS      : eV
#YUNITS      : counts
#DATATYPE    : Y
#XPERCHAN    : 9.99778
#OFFSET      : 1.69135
#BEAMKV      : 20
#SIGNALTYPE  : EDS
#ELEVANGLE   : 35
#AZIMANGLE   : 0
#LIVETIME    : 239.988
#REALTIME    : 250.9146
#PROBECUR    : 1.02609
#TAUWIND     : 0
#TDEADLYR    : 0
#TACTLYR     : 0.045
#TALWIND     : 0.025
#CHOFFSET    : 0.0
#XLABEL      : Energy (eV)
#YLABEL      : Counts
#XPOSITION   : 3.31868
#YPOSITION   : 8.90796
#ZPOSITION   : 31.03511
#EDSDET      : SD
##SPECIMEN   : SPI MM2 C[2][all]
##D2STDCMP   : C,(C:100.0)
##DET_HASH   : 12273538-fd48-a23f-0a19-f1e6fa85caef
##CALIB_HASH : 6abaa72c-aa41-8738-0be9-f592914732f3
##WORKING    : 15.0 mm
##DET_NAME   : EDAX All
##DET_MODE   : MediumLE
#SPECTRUM    :
38,
956,
444851,
556,
2271,
1217,
1561,
1931,
2262,
2509,
2706,
2599,
2559,
2395,
2083,
1992,
1759,
1702,
1569,
1524,
1290,
1327,
1277,
1192,
1100,
1065,
987,
949,
888,
860,
822,
763,
761,
681,
657,
641,
681,
555,
604,
560,
562,
528,
503,
445,
439,
438,
485,
367,
349,
403,
369,
339,
329,
314,
296,
280,
289,
308,
259,
290,
232,
235,
221,
196,
194,
166,
203,
202,
168,
153,
181,
143,
117,
142,
131,
126,
106,
103,
119,
107,
114,
100,
82,
95,
74,
78,
99,
77,
69,
68,
78,
51,
63,
52,
61,
39,
48,
37,
42,
41,
38,
40,
32,
38,
20,
26,
29,
27,
19,
17,
18,
25,
15,
18,
18,
21,
21,
11,
11,
8,
14,
15,
8,
6,
7,
6,
8,
8,
6,
2,
10,
2,
7,
2,
2,
1,
3,
1,
3,
3,
1,
0,
1,
0,
0,
0,
0,
0,
0,
0,
0,
0,
0,
0,
0,
0,
0,
0,
0,
0,
0,
0,
0,
0,
0,
0,
0,
0,
0,
0,
0,
0,
0,
0,
0,
0,
0,
0,
0,
0,
0,
0,
0,
0,
0,
0,
0,
0,
0,
0,
0,
0,
0,
0,
0,
0,
0,
0,
0,
0,
0,
0,
0,
0,
0,
0,
0,
0,
0,
0,
0,
0,
0,
0,
0,
0,
0,
0,
0,
0,
0,
0,
0,
0,
0,
0,
0,
0,
0,
0,
0,
0,
0,
0,
0,
0,
0,
0,
0,
0,
0,
0,
0,
0,
0,
0,
0,
0,
0,
0,
0,
0,
0,
0,
0,
0,
0,
0,
0,
0,
0,
0,
0,
0,
0,
0,
0,
0,
0,
0,
0,
0,
0,
0,
0,
0,
0,
0,
0,
0,
0,
0,
0,
0,
0,
0,
0,
0,
0,
0,
0,
0,
0,
0,
#ENDOFDATA   :

File: SPI MM2 C[3][4].msa
#FORMAT      : EMSA/MAS Spectral Data File
#VERSION     : 1.0
#TITLE       : SPI MM2 C[3][all]
#DATE        : 13-MAR-2025
#TIME        : 14:24
#OWNER       : Unknown
#NPOINTS     : 4096
#NCOLUMNS    : 1
#XUNITS      : eV
#YUNITS      : counts
#DATATYPE    : Y
#XPERCHAN    : 9.99778
#OFFSET      : 1.69135
#BEAMKV      : 20
#SIGNALTYPE  : EDS
#ELEVANGLE   : 35
#AZIMANGLE   : 0
#LIVETIME    : 239.994
#REALTIME    : 250.917
#PROBECUR    : 1.02609
#TAUWIND     : 0
#TDEADLYR    : 0
#TACTLYR     : 0.045
#TALWIND     : 0.025
#CHOFFSET    : 0.0
#XLABEL      : Energy (eV)
#YLABEL      : Counts
#XPOSITION   : 3.28421
#YPOSITION   : 8.93984
#ZPOSITION   : 31.03511
#EDSDET      : SD
##SPECIMEN   : SPI MM2 C[3][all]
##D2STDCMP   : C,(C:100.0)
##DET_HASH   : 12273538-fd48-a23f-0a19-f1e6fa85caef
##CALIB_HASH : 6abaa72c-aa41-8738-0be9-f592914732f3
##WORKING    : 15.0 mm
##DET_NAME   : EDAX All
##DET_MODE   : MediumLE
#SPECTRUM    :
23,
942,
445476,
510,
2262,
1156,
1481,
1894,
2343,
2524,
2648,
2558,
2525,
2433,
2049,
1894,
1787,
1736,
1547,
1595,
1422,
1308,
1246,
1179,
1136,
1046,
997,
944,
954,
902,
772,
741,
706,
726,
645,
638,
616,
601,
579,
544,
561,
526,
492,
478,
440,
443,
475,
408,
381,
369,
343,
333,
336,
346,
302,
310,
267,
285,
242,
254,
241,
227,
221,
206,
223,
227,
207,
176,
177,
189,
179,
154,
159,
125,
136,
140,
128,
139,
118,
95,
121,
120,
130,
79,
92,
89,
105,
59,
86,
79,
73,
63,
59,
52,
46,
48,
41,
41,
41,
41,
47,
40,
20,
41,
32,
14,
24,
22,
21,
22,
23,
22,
17,
23,
9,
15,
18,
13,
6,
19,
10,
9,
6,
5,
7,
12,
6,
6,
6,
3,
5,
0,
1,
1,
4,
2,
0,
0,
0,
0,
1,
3,
0,
0,
0,
0,
0,
0,
0,
0,
0,
0,
0,
0,
0,
0,
0,
0,
0,
0,
0,
0,
0,
0,
0,
0,
0,
0,
0,
0,
0,
0,
0,
0,
0,
0,
0,
0,
0,
0,
0,
0,
0,
0,
0,
0,
0,
0,
0,
0,
0,
0,
0,
0,
0,
0,
0,
0,
0,
0,
0,
0,
0,
0,
0,
0,
0,
0,
0,
0,
0,
0,
0,
0,
0,
0,
0,
0,
0,
0,
0,
0,
0,
0,
0,
0,
0,
0,
0,
0,
0,
0,
0,
0,
0,
0,
0,
0,
0,
0,
0,
0,
0,
0,
0,
0,
0,
0,
0,
0,
0,
0,
0,
0,
0,
0,
0,
0,
0,
0,
0,
0,
0,
0,
0,
0,
0,
0,
0,
0,
0,
0,
0,
0,
0,
0,
0,
0,
0,
0,
0,
0,
0,
0,
0,
0,
0,
0,
0,
0,
0,
0,
0,
0,
#ENDOFDATA   :

File: SPI MM2 C[4][4].msa
#FORMAT      : EMSA/MAS Spectral Data File
#VERSION     : 1.0
#TITLE       : SPI MM2 C[4][all]
#DATE        : 13-MAR-2025
#TIME        : 14:25
#OWNER       : Unknown
#NPOINTS     : 4096
#NCOLUMNS    : 1
#XUNITS      : eV
#YUNITS      : counts
#DATATYPE    : Y
#XPERCHAN    : 9.99778
#OFFSET      : 1.69135
#BEAMKV      : 20
#SIGNALTYPE  : EDS
#ELEVANGLE   : 35
#AZIMANGLE   : 0
#LIVETIME    : 240.002
#REALTIME    : 250.851
#PROBECUR    : 1.02609
#TAUWIND     : 0
#TDEADLYR    : 0
#TACTLYR     : 0.045
#TALWIND     : 0.025
#CHOFFSET    : 0.0
#XLABEL      : Energy (eV)
#YLABEL      : Counts
#XPOSITION   : 3.27067
#YPOSITION   : 8.90949
#ZPOSITION   : 31.03511
#EDSDET      : SD
##SPECIMEN   : SPI MM2 C[4][all]
##D2STDCMP   : C,(C:100.0)
##DET_HASH   : 12273538-fd48-a23f-0a19-f1e6fa85caef
##CALIB_HASH : 6abaa72c-aa41-8738-0be9-f592914732f3
##WORKING    : 15.0 mm
##DET_NAME   : EDAX All
##DET_MODE   : MediumLE
#SPECTRUM    :
25,
994,
442161,
600,
2304,
1200,
1530,
1893,
2233,
2464,
2600,
2702,
2567,
2448,
2036,
1897,
1782,
1753,
1533,
1490,
1386,
1288,
1233,
1183,
1110,
1027,
1017,
935,
940,
807,
846,
732,
735,
672,
700,
656,
625,
581,
555,
554,
527,
525,
471,
464,
448,
454,
468,
419,
373,
385,
356,
370,
302,
317,
315,
281,
267,
251,
269,
247,
240,
242,
211,
168,
207,
164,
209,
170,
171,
160,
190,
132,
150,
125,
139,
139,
121,
122,
118,
117,
121,
111,
96,
98,
82,
86,
76,
83,
70,
68,
73,
74,
51,
60,
53,
66,
46,
43,
36,
46,
45,
39,
30,
32,
27,
29,
22,
19,
13,
16,
26,
24,
18,
15,
13,
16,
17,
13,
15,
14,
11,
12,
10,
4,
6,
5,
7,
7,
5,
5,
4,
1,
6,
2,
2,
1,
3,
3,
3,
1,
0,
0,
0,
0,
0,
0,
0,
0,
1,
0,
0,
0,
0,
0,
0,
0,
0,
0,
0,
0,
0,
0,
0,
0,
0,
0,
0,
0,
1,
0,
0,
0,
0,
0,
0,
0,
0,
0,
0,
0,
0,
0,
0,
0,
0,
0,
0,
0,
0,
0,
0,
0,
0,
0,
0,
0,
0,
0,
0,
0,
0,
0,
0,
0,
0,
0,
0,
0,
0,
0,
0,
0,
0,
0,
0,
0,
0,
0,
0,
0,
0,
0,
0,
0,
0,
0,
0,
0,
0,
0,
0,
0,
0,
0,
0,
0,
0,
0,
0,
0,
0,
0,
0,
0,
0,
0,
0,
0,
0,
0,
0,
0,
0,
0,
0,
0,
0,
0,
0,
0,
0,
0,
0,
0,
0,
0,
0,
0,
0,
0,
0,
0,
0,
0,
0,
0,
0,
0,
0,
0,
0,
0,
0,
0,
0,
0,
0,
0,
0,
0,
0,
0,
0,
0,
#ENDOFDATA   :

File: SPI MM2 C[5][4].msa
#FORMAT      : EMSA/MAS Spectral Data File
#VERSION     : 1.0
#TITLE       : SPI MM2 C[5][all]
#DATE        : 13-MAR-2025
#TIME        : 14:26
#OWNER       : Unknown
#NPOINTS     : 4096
#NCOLUMNS    : 1
#XUNITS      : eV
#YUNITS      : counts
#DATATYPE    : Y
#XPERCHAN    : 9.99778
#OFFSET      : 1.69135
#BEAMKV      : 20
#SIGNALTYPE  : EDS
#ELEVANGLE   : 35
#AZIMANGLE   : 0
#LIVETIME    : 239.994
#REALTIME    : 250.918
#PROBECUR    : 1.02609
#TAUWIND     : 0
#TDEADLYR    : 0
#TACTLYR     : 0.045
#TALWIND     : 0.025
#CHOFFSET    : 0.0
#XLABEL      : Energy (eV)
#YLABEL      : Counts
#XPOSITION   : 3.27921
#YPOSITION   : 8.99253
#ZPOSITION   : 31.03511
#EDSDET      : SD
##SPECIMEN   : SPI MM2 C[5][all]
##D2STDCMP   : C,(C:100.0)
##DET_HASH   : 12273538-fd48-a23f-0a19-f1e6fa85caef
##CALIB_HASH : 6abaa72c-aa41-8738-0be9-f592914732f3
##WORKING    : 15.0 mm
##DET_NAME   : EDAX All
##DET_MODE   : MediumLE
#SPECTRUM    :
24,
927,
444780,
569,
2317,
1239,
1547,
1901,
2238,
2539,
2581,
2643,
2622,
2434,
1980,
2011,
1812,
1741,
1533,
1485,
1356,
1361,
1270,
1204,
1153,
1074,
999,
906,
901,
892,
825,
790,
762,
679,
649,
674,
645,
556,
573,
586,
490,
530,
481,
440,
487,
452,
462,
390,
375,
381,
364,
368,
298,
311,
304,
309,
288,
259,
256,
248,
232,
229,
220,
213,
221,
181,
169,
191,
169,
152,
171,
163,
141,
142,
133,
125,
120,
129,
127,
113,
97,
109,
97,
110,
103,
75,
82,
66,
87,
68,
72,
66,
70,
58,
67,
60,
52,
54,
46,
48,
36,
40,
28,
38,
34,
22,
29,
27,
27,
31,
11,
21,
22,
21,
19,
14,
16,
15,
13,
12,
15,
11,
7,
4,
8,
6,
7,
4,
5,
3,
3,
1,
4,
4,
4,
1,
2,
2,
2,
1,
0,
0,
0,
0,
0,
0,
0,
0,
0,
0,
0,
0,
0,
0,
1,
0,
0,
0,
0,
0,
0,
0,
0,
0,
0,
0,
0,
0,
0,
0,
0,
0,
0,
0,
0,
0,
0,
0,
0,
0,
0,
0,
0,
0,
0,
0,
0,
0,
0,
0,
0,
0,
0,
0,
0,
0,
0,
0,
0,
0,
0,
0,
0,
0,
0,
0,
0,
0,
0,
0,
0,
0,
0,
0,
0,
0,
0,
0,
0,
0,
0,
0,
0,
0,
0,
0,
0,
0,
0,
0,
0,
0,
0,
0,
0,
0,
0,
0,
0,
0,
0,
0,
0,
0,
0,
0,
0,
0,
0,
0,
0,
0,
0,
0,
0,
0,
0,
0,
0,
0,
0,
0,
0,
0,
0,
0,
0,
0,
0,
0,
0,
0,
0,
0,
0,
0,
0,
0,
0,
0,
0,
0,
0,
0,
0,
0,
0,
0,
0,
0,
0,
0,
0,
0,
#ENDOFDATA   :

File: SPI MM2 C[6][4].msa
#FORMAT      : EMSA/MAS Spectral Data File
#VERSION     : 1.0
#TITLE       : SPI MM2 C[6][all]
#DATE        : 13-MAR-2025
#TIME        : 14:28
#OWNER       : Unknown
#NPOINTS     : 4096
#NCOLUMNS    : 1
#XUNITS      : eV
#YUNITS      : counts
#DATATYPE    : Y
#XPERCHAN    : 9.99778
#OFFSET      : 1.69135
#BEAMKV      : 20
#SIGNALTYPE  : EDS
#ELEVANGLE   : 35
#AZIMANGLE   : 0
#LIVETIME    : 240.017
#REALTIME    : 250.916
#PROBECUR    : 1.02609
#TAUWIND     : 0
#TDEADLYR    : 0
#TACTLYR     : 0.045
#TALWIND     : 0.025
#CHOFFSET    : 0.0
#XLABEL      : Energy (eV)
#YLABEL      : Counts
#XPOSITION   : 3.27774
#YPOSITION   : 8.96736
#ZPOSITION   : 31.03511
#EDSDET      : SD
##SPECIMEN   : SPI MM2 C[6][all]
##D2STDCMP   : C,(C:100.0)
##DET_HASH   : 12273538-fd48-a23f-0a19-f1e6fa85caef
##CALIB_HASH : 6abaa72c-aa41-8738-0be9-f592914732f3
##WORKING    : 15.0 mm
##DET_NAME   : EDAX All
##DET_MODE   : MediumLE
#SPECTRUM    :
14,
969,
444556,
555,
2295,
1200,
1582,
1976,
2355,
2400,
2627,
2681,
2657,
2390,
1960,
1923,
1817,
1737,
1636,
1443,
1367,
1382,
1267,
1217,
1103,
1005,
1025,
966,
863,
854,
849,
794,
727,
716,
697,
646,
630,
598,
557,
506,
495,
478,
474,
467,
456,
453,
468,
388,
355,
364,
369,
353,
305,
328,
279,
281,
262,
251,
284,
272,
237,
238,
242,
188,
192,
199,
191,
175,
152,
163,
159,
154,
168,
142,
134,
139,
143,
130,
128,
109,
123,
103,
104,
117,
82,
77,
84,
83,
62,
65,
62,
74,
67,
61,
59,
61,
53,
43,
39,
35,
51,
25,
31,
28,
32,
30,
22,
28,
25,
20,
20,
15,
19,
12,
17,
19,
14,
11,
12,
14,
9,
13,
8,
8,
7,
7,
5,
9,
6,
6,
2,
3,
6,
2,
2,
5,
3,
1,
0,
1,
0,
1,
0,
0,
0,
0,
0,
0,
0,
0,
0,
0,
0,
0,
0,
0,
0,
0,
0,
0,
0,
0,
0,
0,
0,
0,
0,
0,
0,
0,
0,
0,
0,
0,
0,
0,
0,
0,
0,
0,
0,
0,
0,
0,
0,
0,
0,
0,
0,
0,
0,
0,
0,
0,
0,
0,
0,
0,
0,
0,
0,
0,
0,
0,
0,
0,
0,
0,
0,
0,
0,
0,
0,
0,
0,
0,
0,
0,
0,
0,
0,
0,
0,
0,
0,
0,
0,
0,
0,
0,
0,
0,
0,
0,
0,
0,
0,
0,
0,
0,
0,
0,
0,
0,
0,
0,
0,
0,
0,
0,
0,
0,
0,
0,
0,
0,
0,
0,
0,
0,
0,
0,
0,
0,
0,
0,
0,
0,
0,
0,
0,
0,
0,
0,
0,
0,
0,
0,
0,
0,
0,
0,
0,
0,
0,
0,
0,
0,
0,
0,
0,
0,
0,
0,
#ENDOFDATA   :

File: SPI MM2 MgAl2O4[0][4].msa
#FORMAT      : EMSA/MAS Spectral Data File
#VERSION     : 1.0
#TITLE       : SPI MM2 MgAl2O4[0][all]
#DATE        : 13-MAR-2025
#TIME        : 09:27
#OWNER       : Unknown
#NPOINTS     : 4096
#NCOLUMNS    : 1
#XUNITS      : eV
#YUNITS      : counts
#DATATYPE    : Y
#XPERCHAN    : 9.99778
#OFFSET      : 1.69135
#BEAMKV      : 20
#SIGNALTYPE  : EDS
#ELEVANGLE   : 35
#AZIMANGLE   : 0
#LIVETIME    : 239.861
#REALTIME    : 256.42
#PROBECUR    : 1.02582
#TAUWIND     : 0
#TDEADLYR    : 0
#TACTLYR     : 0.045
#TALWIND     : 0.025
#CHOFFSET    : 0.0
#XLABEL      : Energy (eV)
#YLABEL      : Counts
#XPOSITION   : 0.8218
#YPOSITION   : -5.36128
#ZPOSITION   : 31.03509
#EDSDET      : SD
##SPECIMEN   : SPI MM2 MgAl2O4[0][all]
##D2STDCMP   : MgAl2O4,(O:44.9839),(Mg:17.0844),(Al:37.9316)
##DET_HASH   : 12273538-fd48-a23f-0a19-f1e6fa85caef
##CALIB_HASH : 6abaa72c-aa41-8738-0be9-f592914732f3
##WORKING    : 15.0 mm
##DET_NAME   : EDAX All
##DET_MODE   : MediumLE
#SPECTRUM    :
16,
195,
8212,
6614,
69894,
2064,
2912,
3734,
5460,
152510,
19890,
91169,
2252,
2348,
2470,
2074,
2111,
2217,
2314,
2288,
2304,
2361,
2080,
1944,
1880,
1773,
1740,
1679,
1674,
1543,
1536,
1500,
1461,
1335,
1340,
1293,
1204,
1152,
1097,
1114,
1025,
969,
1036,
989,
878,
899,
932,
853,
821,
782,
717,
743,
730,
701,
630,
628,
631,
602,
605,
582,
518,
493,
506,
507,
474,
477,
426,
452,
410,
373,
373,
369,
361,
318,
312,
308,
296,
273,
277,
269,
281,
274,
242,
217,
218,
192,
210,
216,
183,
160,
161,
160,
155,
145,
150,
134,
114,
104,
108,
90,
95,
95,
98,
102,
67,
72,
53,
62,
65,
78,
48,
66,
58,
39,
43,
40,
52,
28,
33,
25,
23,
27,
26,
19,
25,
19,
14,
13,
12,
17,
14,
13,
8,
11,
4,
10,
3,
1,
2,
0,
2,
3,
3,
0,
0,
0,
0,
0,
0,
0,
0,
0,
0,
0,
0,
0,
0,
0,
0,
0,
0,
0,
0,
0,
0,
0,
0,
0,
0,
0,
0,
0,
0,
0,
0,
0,
0,
0,
0,
0,
0,
0,
0,
0,
0,
0,
0,
0,
0,
0,
0,
0,
0,
0,
0,
0,
0,
0,
0,
0,
0,
0,
0,
0,
0,
0,
0,
0,
0,
0,
0,
0,
0,
0,
0,
0,
0,
0,
0,
0,
0,
0,
0,
0,
0,
0,
0,
0,
0,
0,
0,
0,
0,
0,
0,
0,
0,
0,
0,
0,
0,
0,
0,
0,
0,
0,
0,
0,
0,
0,
0,
0,
0,
0,
0,
0,
0,
0,
0,
0,
0,
0,
0,
0,
0,
0,
0,
0,
0,
0,
0,
0,
0,
0,
0,
0,
0,
0,
0,
0,
0,
0,
0,
0,
0,
0,
0,
0,
0,
0,
0,
0,
0,
0,
#ENDOFDATA   :