Folder: spex_quant/N132962/Quantification/MMM1

Note: README.md
# spex_quant
Spectral data for evaluating `spex`.  It contains both standard spectra and sample spectra.

 * N132962 represents the TESCAN MIRA4 with 4 silicon nitride window silicon drift detectors in 217 D113 at NIST Gaitherburg.
  * Reference set: "N132962 20 keV" built using 'n132962_20keV.bat' for 20 keV analyses

File: SPI MM1 Albite[2][4].msa
#FORMAT      : EMSA/MAS Spectral Data File
#VERSION     : 1.0
#TITLE       : SPI MM1 Albite[2][all]
#DATE        : 11-MAR-2025
#TIME        : 12:50
#OWNER       : Unknown
#NPOINTS     : 4096
#NCOLUMNS    : 1
#XUNITS      : eV
#YUNITS      : counts
#DATATYPE    : Y
#XPERCHAN    : 9.99778
#OFFSET      : 1.69135
#BEAMKV      : 20
#SIGNALTYPE  : EDS
#ELEVANGLE   : 35
#AZIMANGLE   : 0
#LIVETIME    : 239.848
#REALTIME    : 255.981
#PROBECUR    : 1.02699
#TAUWIND     : 0
#TDEADLYR    : 0
#TACTLYR     : 0.045
#TALWIND     : 0.025
#CHOFFSET    : 0.0
#XLABEL      : Energy (eV)
#YLABEL      : Counts
#XPOSITION   : 3.42271
#YPOSITION   : -7.11557
#ZPOSITION   : 30.9284
#EDSDET      : SD
##SPECIMEN   : SPI MM1 Albite[2][all]
##D2STDCMP   : Albite,(O:48.8112),(Na:8.7674),(Al:10.2897),(Si:32.1316)
##DET_HASH   : 12273538-fd48-a23f-0a19-f1e6fa85caef
##CALIB_HASH : 6abaa72c-aa41-8738-0be9-f592914732f3
##WORKING    : 15.0 mm
##DET_NAME   : EDAX All
##DET_MODE   : MediumLE
#SPECTRUM    :
21,
214,
7900,
6342,
68008,
2189,
2755,
14113,
5662,
3807,
9505,
33442,
73825,
34926,
2115,
2057,
2765,
2175,
2232,
2100,
2255,
2127,
1962,
2397,
2364,
2095,
1973,
1756,
1643,
1579,
1543,
1479,
1323,
1363,
1314,
1324,
1238,
1214,
1135,
1170,
1081,
1058,
1022,
994,
952,
920,
998,
820,
790,
779,
735,
706,
754,
704,
644,
628,
652,
632,
606,
563,
536,
497,
484,
484,
467,
465,
436,
403,
402,
413,
354,
362,
354,
338,
320,
329,
308,
275,
253,
302,
277,
242,
232,
205,
219,
195,
192,
205,
185,
185,
190,
164,
161,
137,
115,
146,
115,
98,
118,
115,
115,
94,
72,
85,
95,
88,
82,
77,
59,
68,
64,
42,
55,
47,
34,
46,
43,
43,
39,
27,
34,
39,
27,
24,
24,
20,
15,
15,
15,
7,
10,
9,
6,
13,
6,
4,
9,
5,
4,
1,
0,
4,
1,
0,
1,
0,
0,
0,
0,
0,
0,
0,
0,
0,
0,
0,
0,
0,
0,
0,
0,
0,
0,
0,
0,
0,
0,
0,
0,
0,
0,
0,
0,
0,
0,
0,
0,
0,
0,
0,
0,
0,
0,
0,
0,
0,
0,
0,
0,
0,
0,
0,
0,
0,
0,
0,
0,
0,
0,
0,
0,
0,
0,
0,
0,
0,
0,
0,
0,
0,
0,
0,
0,
0,
0,
0,
0,
0,
0,
0,
0,
0,
0,
0,
0,
0,
0,
0,
0,
0,
0,
0,
0,
0,
0,
0,
0,
0,
0,
0,
0,
0,
0,
0,
0,
0,
0,
0,
0,
0,
0,
0,
0,
0,
0,
0,
0,
0,
0,
0,
0,
0,
0,
0,
0,
0,
0,
0,
0,
0,
0,
0,
0,
0,
0,
0,
0,
0,
0,
0,
0,
0,
0,
0,
0,
0,
0,
0,
0,
0,
0,
0,
0,
0,
#ENDOFDATA   :

File: SPI MM1 Albite[3][4].msa
#FORMAT      : EMSA/MAS Spectral Data File
#VERSION     : 1.0
#TITLE       : SPI MM1 Albite[3][all]
#DATE        : 11-MAR-2025
#TIME        : 12:52
#OWNER       : Unknown
#NPOINTS     : 4096
#NCOLUMNS    : 1
#XUNITS      : eV
#YUNITS      : counts
#DATATYPE    : Y
#XPERCHAN    : 9.99778
#OFFSET      : 1.69135
#BEAMKV      : 20
#SIGNALTYPE  : EDS
#ELEVANGLE   : 35
#AZIMANGLE   : 0
#LIVETIME    : 239.854
#REALTIME    : 255.975
#PROBECUR    : 1.02699
#TAUWIND     : 0
#TDEADLYR    : 0
#TACTLYR     : 0.045
#TALWIND     : 0.025
#CHOFFSET    : 0.0
#XLABEL      : Energy (eV)
#YLABEL      : Counts
#XPOSITION   : 3.48227
#YPOSITION   : -7.10068
#ZPOSITION   : 30.9284
#EDSDET      : SD
##SPECIMEN   : SPI MM1 Albite[3][all]
##D2STDCMP   : Albite,(O:48.8112),(Na:8.7674),(Al:10.2897),(Si:32.1316)
##DET_HASH   : 12273538-fd48-a23f-0a19-f1e6fa85caef
##CALIB_HASH : 6abaa72c-aa41-8738-0be9-f592914732f3
##WORKING    : 15.0 mm
##DET_NAME   : EDAX All
##DET_MODE   : MediumLE
#SPECTRUM    :
27,
199,
7726,
6511,
67339,
2089,
2747,
14271,
5677,
3744,
9385,
33350,
73742,
34805,
2172,
2044,
2727,
2133,
2146,
2170,
2125,
2073,
1856,
2261,
2354,
2228,
2107,
1793,
1675,
1672,
1529,
1504,
1389,
1374,
1355,
1241,
1273,
1171,
1153,
1122,
1074,
1037,
1013,
962,
928,
935,
926,
888,
808,
762,
758,
692,
648,
677,
659,
627,
584,
608,
569,
563,
533,
543,
481,
497,
452,
410,
420,
401,
443,
387,
384,
358,
315,
322,
326,
303,
292,
277,
275,
287,
270,
223,
279,
239,
218,
225,
172,
207,
180,
173,
187,
164,
158,
133,
131,
125,
125,
124,
114,
110,
102,
107,
95,
88,
93,
76,
67,
62,
56,
60,
65,
51,
39,
52,
51,
38,
42,
37,
36,
22,
26,
21,
25,
24,
18,
26,
16,
20,
11,
17,
10,
9,
9,
11,
6,
8,
5,
6,
2,
3,
1,
1,
0,
0,
0,
0,
0,
0,
1,
0,
0,
0,
0,
0,
0,
0,
0,
0,
0,
0,
0,
0,
0,
0,
0,
0,
0,
0,
0,
0,
0,
0,
0,
0,
0,
0,
0,
0,
0,
0,
0,
0,
0,
0,
0,
0,
0,
0,
0,
0,
0,
0,
0,
0,
0,
0,
0,
0,
0,
0,
0,
0,
0,
0,
0,
0,
0,
0,
0,
0,
0,
0,
0,
0,
0,
0,
0,
0,
0,
0,
0,
0,
0,
0,
0,
0,
0,
0,
0,
0,
0,
0,
0,
0,
0,
0,
0,
0,
0,
0,
0,
0,
0,
0,
0,
0,
0,
0,
0,
0,
0,
0,
0,
0,
0,
0,
0,
0,
0,
0,
0,
0,
0,
0,
0,
0,
0,
0,
0,
0,
0,
0,
0,
0,
0,
0,
0,
0,
0,
0,
0,
0,
0,
0,
0,
0,
0,
0,
0,
0,
0,
0,
0,
0,
#ENDOFDATA   :

File: SPI MM1 Albite[5][4].msa
#FORMAT      : EMSA/MAS Spectral Data File
#VERSION     : 1.0
#TITLE       : SPI MM1 Albite[5][all]
#DATE        : 11-MAR-2025
#TIME        : 12:54
#OWNER       : Unknown
#NPOINTS     : 4096
#NCOLUMNS    : 1
#XUNITS      : eV
#YUNITS      : counts
#DATATYPE    : Y
#XPERCHAN    : 9.99778
#OFFSET      : 1.69135
#BEAMKV      : 20
#SIGNALTYPE  : EDS
#ELEVANGLE   : 35
#AZIMANGLE   : 0
#LIVETIME    : 239.782
#REALTIME    : 255.919
#PROBECUR    : 1.02699
#TAUWIND     : 0
#TDEADLYR    : 0
#TACTLYR     : 0.045
#TALWIND     : 0.025
#CHOFFSET    : 0.0
#XLABEL      : Energy (eV)
#YLABEL      : Counts
#XPOSITION   : 3.45649
#YPOSITION   : -7.02048
#ZPOSITION   : 30.9284
#EDSDET      : SD
##SPECIMEN   : SPI MM1 Albite[5][all]
##D2STDCMP   : Albite,(O:48.8112),(Na:8.7674),(Al:10.2897),(Si:32.1316)
##DET_HASH   : 12273538-fd48-a23f-0a19-f1e6fa85caef
##CALIB_HASH : 6abaa72c-aa41-8738-0be9-f592914732f3
##WORKING    : 15.0 mm
##DET_NAME   : EDAX All
##DET_MODE   : MediumLE
#SPECTRUM    :
38,
173,
7635,
6525,
67723,
2037,
2765,
14008,
5838,
3636,
9443,
33840,
73946,
34753,
2192,
2133,
2800,
2161,
2108,
2154,
2284,
2103,
1955,
2190,
2305,
2206,
2049,
1907,
1661,
1639,
1519,
1421,
1418,
1396,
1311,
1262,
1239,
1205,
1146,
1175,
1069,
1083,
971,
927,
896,
963,
922,
862,
786,
813,
814,
686,
691,
727,
624,
637,
568,
598,
596,
537,
552,
521,
522,
475,
497,
453,
461,
430,
394,
389,
406,
345,
381,
319,
329,
318,
293,
281,
289,
278,
243,
241,
215,
222,
200,
215,
222,
204,
198,
175,
169,
157,
189,
165,
137,
122,
146,
141,
110,
113,
83,
100,
95,
98,
68,
77,
66,
56,
67,
64,
54,
52,
50,
53,
36,
46,
51,
44,
27,
28,
27,
28,
23,
27,
22,
17,
18,
17,
20,
11,
9,
13,
7,
9,
6,
6,
4,
4,
5,
4,
3,
0,
0,
0,
0,
0,
0,
0,
1,
0,
0,
0,
0,
0,
0,
0,
0,
0,
0,
0,
0,
0,
0,
0,
0,
1,
0,
0,
0,
0,
0,
0,
0,
0,
0,
0,
0,
0,
0,
0,
0,
0,
0,
0,
0,
0,
0,
0,
0,
0,
0,
0,
0,
0,
0,
0,
0,
0,
0,
0,
0,
0,
0,
0,
0,
0,
0,
0,
0,
0,
0,
0,
0,
0,
0,
0,
0,
0,
0,
0,
0,
0,
0,
0,
0,
0,
0,
0,
0,
0,
0,
0,
0,
0,
0,
0,
0,
0,
0,
0,
0,
0,
0,
0,
0,
0,
0,
0,
0,
0,
0,
0,
0,
0,
0,
0,
0,
0,
0,
0,
0,
0,
0,
0,
0,
0,
0,
0,
0,
0,
0,
0,
0,
0,
0,
0,
0,
0,
0,
0,
0,
0,
0,
0,
0,
0,
0,
0,
0,
0,
0,
0,
0,
0,
#ENDOFDATA   :

File: SPI MM1 Almandine[2][4].msa
#FORMAT      : EMSA/MAS Spectral Data File
#VERSION     : 1.0
#TITLE       : SPI MM1 Almandine[2][all]
#DATE        : 11-MAR-2025
#TIME        : 13:00
#OWNER       : Unknown
#NPOINTS     : 4096
#NCOLUMNS    : 1
#XUNITS      : eV
#YUNITS      : counts
#DATATYPE    : Y
#XPERCHAN    : 9.99778
#OFFSET      : 1.69135
#BEAMKV      : 20
#SIGNALTYPE  : EDS
#ELEVANGLE   : 35
#AZIMANGLE   : 0
#LIVETIME    : 239.849
#REALTIME    : 255.276
#PROBECUR    : 1.02699
#TAUWIND     : 0
#TDEADLYR    : 0
#TACTLYR     : 0.045
#TALWIND     : 0.025
#CHOFFSET    : 0.0
#XLABEL      : Energy (eV)
#YLABEL      : Counts
#XPOSITION   : 0.42364
#YPOSITION   : -7.88032
#ZPOSITION   : 30.9284
#EDSDET      : SD
##SPECIMEN   : SPI MM1 Almandine[2][all]
##D2STDCMP   : Almandine,(O:38.5719),(Al:10.8416),(Si:16.9275),(Fe:33.6591),4.05
##DET_HASH   : 12273538-fd48-a23f-0a19-f1e6fa85caef
##CALIB_HASH : 6abaa72c-aa41-8738-0be9-f592914732f3
##WORKING    : 15.0 mm
##DET_NAME   : EDAX All
##DET_MODE   : MediumLE
#SPECTRUM    :
28,
177,
8863,
6243,
60114,
15294,
2451,
3012,
3835,
41900,
8938,
31439,
39566,
19355,
2874,
2665,
3094,
2743,
2769,
2687,
2765,
2697,
2487,
2607,
2365,
2525,
9311,
4468,
2331,
3204,
1963,
1918,
1859,
1839,
1709,
1685,
1573,
1592,
1381,
1578,
1343,
1314,
2305,
1422,
1292,
9205,
27493,
1395,
1060,
1156,
4037,
2455,
902,
889,
823,
774,
793,
788,
799,
714,
667,
661,
646,
621,
552,
598,
574,
559,
537,
490,
531,
496,
426,
440,
451,
421,
365,
374,
350,
371,
350,
354,
318,
281,
292,
287,
277,
268,
265,
247,
235,
232,
214,
192,
197,
176,
196,
163,
164,
151,
148,
133,
109,
140,
127,
124,
106,
94,
89,
101,
76,
82,
58,
60,
56,
59,
60,
53,
49,
44,
47,
27,
45,
38,
35,
32,
28,
29,
27,
23,
21,
19,
13,
14,
11,
14,
6,
6,
3,
4,
4,
3,
1,
1,
1,
1,
0,
0,
0,
1,
1,
0,
0,
0,
1,
0,
0,
0,
0,
0,
0,
0,
0,
0,
0,
0,
0,
0,
0,
0,
0,
0,
0,
0,
0,
0,
0,
0,
0,
0,
0,
0,
0,
0,
0,
0,
0,
1,
0,
0,
0,
0,
0,
0,
0,
0,
0,
0,
0,
0,
0,
0,
0,
0,
0,
0,
0,
0,
0,
0,
0,
0,
0,
0,
0,
0,
0,
0,
0,
0,
0,
0,
0,
0,
0,
0,
0,
0,
0,
0,
0,
0,
0,
0,
0,
0,
0,
0,
0,
0,
0,
0,
0,
0,
0,
0,
0,
0,
0,
0,
0,
0,
0,
0,
0,
0,
0,
0,
0,
0,
0,
0,
0,
0,
0,
0,
0,
0,
0,
0,
0,
0,
0,
0,
0,
0,
0,
0,
0,
0,
0,
0,
0,
0,
0,
0,
0,
0,
0,
0,
0,
0,
0,
0,
#ENDOFDATA   :

File: SPI MM1 Almandine[4][4].msa
#FORMAT      : EMSA/MAS Spectral Data File
#VERSION     : 1.0
#TITLE       : SPI MM1 Almandine[4][all]
#DATE        : 11-MAR-2025
#TIME        : 13:02
#OWNER       : Unknown
#NPOINTS     : 4096
#NCOLUMNS    : 1
#XUNITS      : eV
#YUNITS      : counts
#DATATYPE    : Y
#XPERCHAN    : 9.99778
#OFFSET      : 1.69135
#BEAMKV      : 20
#SIGNALTYPE  : EDS
#ELEVANGLE   : 35
#AZIMANGLE   : 0
#LIVETIME    : 239.834
#REALTIME    : 255.276
#PROBECUR    : 1.02699
#TAUWIND     : 0
#TDEADLYR    : 0
#TACTLYR     : 0.045
#TALWIND     : 0.025
#CHOFFSET    : 0.0
#XLABEL      : Energy (eV)
#YLABEL      : Counts
#XPOSITION   : 0.45275
#YPOSITION   : -7.86648
#ZPOSITION   : 30.9284
#EDSDET      : SD
##SPECIMEN   : SPI MM1 Almandine[4][all]
##D2STDCMP   : Almandine,(O:38.5719),(Al:10.8416),(Si:16.9275),(Fe:33.6591),4.05
##DET_HASH   : 12273538-fd48-a23f-0a19-f1e6fa85caef
##CALIB_HASH : 6abaa72c-aa41-8738-0be9-f592914732f3
##WORKING    : 15.0 mm
##DET_NAME   : EDAX All
##DET_MODE   : MediumLE
#SPECTRUM    :
20,
183,
8884,
6312,
59335,
15194,
2487,
2934,
3645,
41967,
9051,
31314,
39232,
19790,
2915,
2822,
3143,
2740,
2759,
2713,
2707,
2776,
2539,
2535,
2413,
2514,
9421,
4338,
2376,
3094,
2090,
1849,
1903,
1858,
1724,
1662,
1593,
1539,
1543,
1457,
1354,
1375,
2232,
1308,
1287,
9463,
27664,
1464,
1129,
1244,
3907,
2503,
951,
934,
867,
847,
802,
715,
776,
752,
677,
689,
643,
666,
610,
569,
595,
546,
552,
556,
529,
501,
498,
446,
397,
415,
441,
385,
389,
362,
353,
321,
313,
340,
281,
310,
260,
269,
251,
234,
206,
211,
235,
211,
149,
184,
154,
154,
128,
155,
143,
141,
119,
118,
107,
101,
114,
100,
95,
77,
77,
76,
81,
61,
65,
51,
56,
47,
50,
46,
38,
35,
32,
27,
29,
28,
25,
25,
33,
19,
13,
18,
9,
12,
16,
13,
7,
9,
6,
2,
2,
1,
0,
1,
0,
0,
0,
2,
0,
0,
0,
0,
0,
0,
0,
1,
0,
0,
0,
0,
0,
0,
1,
0,
1,
0,
0,
0,
0,
1,
0,
0,
0,
0,
0,
0,
0,
0,
0,
0,
0,
0,
0,
0,
0,
0,
0,
0,
0,
0,
0,
0,
0,
0,
0,
0,
0,
0,
0,
0,
0,
0,
0,
0,
0,
0,
0,
0,
0,
0,
0,
0,
0,
0,
0,
0,
0,
0,
0,
0,
0,
0,
0,
0,
0,
0,
0,
0,
0,
0,
0,
0,
0,
0,
0,
0,
0,
0,
0,
0,
0,
0,
0,
0,
0,
0,
0,
0,
0,
0,
0,
0,
0,
0,
0,
0,
0,
0,
0,
0,
0,
0,
0,
0,
0,
0,
0,
0,
0,
0,
0,
0,
0,
0,
0,
0,
0,
0,
0,
0,
0,
0,
0,
0,
0,
0,
0,
0,
0,
0,
0,
0,
0,
0,
#ENDOFDATA   :

File: SPI MM1 Almandine[5][4].msa
#FORMAT      : EMSA/MAS Spectral Data File
#VERSION     : 1.0
#TITLE       : SPI MM1 Almandine[5][all]
#DATE        : 11-MAR-2025
#TIME        : 13:03
#OWNER       : Unknown
#NPOINTS     : 4096
#NCOLUMNS    : 1
#XUNITS      : eV
#YUNITS      : counts
#DATATYPE    : Y
#XPERCHAN    : 9.99778
#OFFSET      : 1.69135
#BEAMKV      : 20
#SIGNALTYPE  : EDS
#ELEVANGLE   : 35
#AZIMANGLE   : 0
#LIVETIME    : 239.8426
#REALTIME    : 255.273
#PROBECUR    : 1.02699
#TAUWIND     : 0
#TDEADLYR    : 0
#TACTLYR     : 0.045
#TALWIND     : 0.025
#CHOFFSET    : 0.0
#XLABEL      : Energy (eV)
#YLABEL      : Counts
#XPOSITION   : 0.43788
#YPOSITION   : -7.81237
#ZPOSITION   : 30.9284
#EDSDET      : SD
##SPECIMEN   : SPI MM1 Almandine[5][all]
##D2STDCMP   : Almandine,(O:38.5719),(Al:10.8416),(Si:16.9275),(Fe:33.6591),4.05
##DET_HASH   : 12273538-fd48-a23f-0a19-f1e6fa85caef
##CALIB_HASH : 6abaa72c-aa41-8738-0be9-f592914732f3
##WORKING    : 15.0 mm
##DET_NAME   : EDAX All
##DET_MODE   : MediumLE
#SPECTRUM    :
24,
168,
9042,
6346,
60242,
15172,
2432,
2936,
3791,
41838,
8885,
31253,
38925,
19451,
2975,
2770,
3094,
2827,
2766,
2727,
2693,
2623,
2527,
2666,
2373,
2404,
9494,
4356,
2342,
3004,
1951,
1966,
1879,
1823,
1688,
1707,
1564,
1574,
1534,
1512,
1421,
1368,
2273,
1398,
1356,
9446,
27288,
1462,
1086,
1182,
4128,
2582,
915,
930,
795,
841,
822,
771,
805,
757,
692,
629,
652,
637,
627,
564,
533,
549,
511,
528,
459,
486,
481,
443,
452,
412,
394,
355,
361,
377,
333,
327,
307,
291,
303,
300,
269,
264,
274,
280,
199,
229,
227,
192,
195,
160,
190,
188,
139,
150,
143,
128,
134,
117,
120,
114,
102,
101,
88,
88,
87,
77,
79,
69,
71,
58,
49,
49,
38,
29,
44,
26,
36,
39,
28,
28,
13,
24,
25,
18,
18,
20,
17,
14,
6,
5,
8,
5,
4,
3,
3,
0,
0,
1,
0,
1,
0,
0,
0,
0,
0,
0,
0,
0,
0,
0,
0,
0,
0,
0,
0,
0,
0,
0,
0,
0,
0,
0,
0,
0,
1,
0,
0,
0,
0,
0,
0,
1,
0,
0,
0,
0,
0,
0,
0,
0,
0,
1,
0,
0,
0,
0,
0,
0,
0,
0,
0,
0,
0,
0,
0,
0,
0,
0,
0,
0,
0,
0,
0,
0,
0,
0,
0,
0,
0,
0,
0,
0,
1,
0,
0,
0,
0,
0,
0,
0,
0,
0,
0,
0,
0,
0,
0,
0,
0,
0,
0,
0,
0,
0,
0,
0,
0,
0,
0,
0,
0,
0,
0,
0,
0,
0,
0,
0,
0,
0,
0,
0,
0,
0,
0,
0,
0,
0,
0,
0,
0,
0,
0,
0,
0,
0,
0,
0,
0,
0,
0,
0,
0,
0,
0,
0,
0,
0,
0,
0,
0,
0,
0,
0,
0,
0,
0,
0,
#ENDOFDATA   :

File: SPI MM1 Almandine[6][4].msa
#FORMAT      : EMSA/MAS Spectral Data File
#VERSION     : 1.0
#TITLE       : SPI MM1 Almandine[6][all]
#DATE        : 11-MAR-2025
#TIME        : 13:04
#OWNER       : Unknown
#NPOINTS     : 4096
#NCOLUMNS    : 1
#XUNITS      : eV
#YUNITS      : counts
#DATATYPE    : Y
#XPERCHAN    : 9.99778
#OFFSET      : 1.69135
#BEAMKV      : 20
#SIGNALTYPE  : EDS
#ELEVANGLE   : 35
#AZIMANGLE   : 0
#LIVETIME    : 239.84
#REALTIME    : 255.272
#PROBECUR    : 1.02699
#TAUWIND     : 0
#TDEADLYR    : 0
#TACTLYR     : 0.045
#TALWIND     : 0.025
#CHOFFSET    : 0.0
#XLABEL      : Energy (eV)
#YLABEL      : Counts
#XPOSITION   : 0.35175
#YPOSITION   : -7.84719
#ZPOSITION   : 30.9284
#EDSDET      : SD
##SPECIMEN   : SPI MM1 Almandine[6][all]
##D2STDCMP   : Almandine,(O:38.5719),(Al:10.8416),(Si:16.9275),(Fe:33.6591),4.05
##DET_HASH   : 12273538-fd48-a23f-0a19-f1e6fa85caef
##CALIB_HASH : 6abaa72c-aa41-8738-0be9-f592914732f3
##WORKING    : 15.0 mm
##DET_NAME   : EDAX All
##DET_MODE   : MediumLE
#SPECTRUM    :
30,
189,
8955,
6317,
60064,
15150,
2532,
2937,
3790,
41993,
8727,
31118,
39005,
19535,
2845,
2677,
3050,
2785,
2780,
2809,
2653,
2667,
2663,
2522,
2410,
2499,
9314,
4413,
2431,
3089,
1954,
1830,
1995,
1933,
1726,
1662,
1590,
1454,
1485,
1547,
1359,
1359,
2279,
1345,
1301,
9595,
27368,
1466,
1058,
1213,
4024,
2553,
912,
895,
893,
803,
837,
724,
762,
684,
691,
671,
650,
630,
609,
575,
537,
568,
532,
501,
518,
490,
468,
433,
435,
428,
408,
394,
350,
373,
335,
334,
306,
292,
303,
255,
276,
240,
232,
227,
235,
210,
212,
194,
176,
176,
176,
151,
169,
132,
126,
143,
133,
112,
142,
112,
112,
93,
79,
72,
75,
75,
76,
52,
61,
59,
50,
60,
60,
42,
45,
36,
32,
32,
32,
25,
34,
27,
15,
18,
22,
12,
17,
18,
10,
4,
3,
5,
2,
6,
6,
0,
1,
0,
1,
0,
0,
0,
0,
0,
0,
1,
0,
0,
0,
0,
0,
0,
0,
0,
0,
0,
0,
0,
0,
0,
0,
0,
0,
0,
0,
0,
0,
0,
0,
0,
0,
0,
0,
0,
0,
0,
0,
0,
0,
0,
0,
0,
0,
0,
0,
0,
0,
0,
0,
0,
0,
0,
0,
0,
0,
0,
0,
0,
0,
0,
0,
0,
0,
0,
0,
0,
0,
0,
0,
0,
0,
0,
0,
0,
0,
0,
0,
0,
0,
0,
0,
0,
0,
0,
0,
0,
0,
0,
0,
0,
0,
0,
0,
0,
0,
0,
0,
0,
0,
0,
0,
0,
0,
0,
0,
0,
0,
0,
0,
0,
0,
0,
0,
0,
0,
0,
0,
0,
0,
0,
0,
0,
0,
0,
0,
0,
0,
0,
0,
0,
0,
0,
0,
0,
0,
0,
0,
0,
0,
0,
0,
0,
0,
0,
0,
0,
0,
0,
#ENDOFDATA   :

File: SPI MM1 Andradite[1][4].msa
#FORMAT      : EMSA/MAS Spectral Data File
#VERSION     : 1.0
#TITLE       : SPI MM1 Andradite[1][all]
#DATE        : 11-MAR-2025
#TIME        : 13:08
#OWNER       : Unknown
#NPOINTS     : 4096
#NCOLUMNS    : 1
#XUNITS      : eV
#YUNITS      : counts
#DATATYPE    : Y
#XPERCHAN    : 9.99778
#OFFSET      : 1.69135
#BEAMKV      : 20
#SIGNALTYPE  : EDS
#ELEVANGLE   : 35
#AZIMANGLE   : 0
#LIVETIME    : 240.051
#REALTIME    : 254.628
#PROBECUR    : 1.02699
#TAUWIND     : 0
#TDEADLYR    : 0
#TACTLYR     : 0.045
#TALWIND     : 0.025
#CHOFFSET    : 0.0
#XLABEL      : Energy (eV)
#YLABEL      : Counts
#XPOSITION   : -2.20546
#YPOSITION   : -8.03832
#ZPOSITION   : 30.9284
#EDSDET      : SD
##SPECIMEN   : SPI MM1 Andradite[1][all]
##D2STDCMP   : Andradite,(O:37.7805),(Si:16.5802),(Ca:23.6603),(Fe:21.979),3.86
##DET_HASH   : 12273538-fd48-a23f-0a19-f1e6fa85caef
##CALIB_HASH : 6abaa72c-aa41-8738-0be9-f592914732f3
##WORKING    : 15.0 mm
##DET_NAME   : EDAX All
##DET_MODE   : MediumLE
#SPECTRUM    :
31,
234,
21339,
3659,
28773,
9653,
2369,
2647,
3232,
3857,
5083,
9541,
32517,
16918,
4891,
3306,
3561,
3227,
3329,
3249,
3148,
2927,
2921,
2842,
2722,
3282,
71275,
24599,
5266,
12420,
2000,
1866,
1842,
1856,
1712,
1640,
1638,
1524,
1498,
1621,
1425,
1441,
1832,
1445,
1269,
7149,
19694,
1350,
1133,
1157,
3117,
2111,
932,
1017,
957,
833,
851,
798,
858,
786,
758,
716,
647,
689,
637,
621,
643,
592,
586,
557,
521,
576,
535,
490,
480,
446,
464,
457,
394,
380,
359,
362,
358,
339,
291,
306,
300,
293,
266,
242,
225,
236,
220,
199,
205,
197,
168,
170,
173,
156,
143,
148,
135,
122,
137,
134,
101,
104,
96,
118,
95,
89,
69,
69,
73,
57,
54,
65,
46,
57,
49,
50,
43,
33,
36,
18,
24,
17,
32,
25,
23,
16,
16,
14,
8,
6,
10,
8,
3,
6,
5,
3,
3,
0,
1,
0,
2,
2,
0,
1,
0,
0,
0,
0,
0,
0,
0,
0,
0,
0,
0,
0,
0,
0,
2,
0,
0,
0,
0,
0,
0,
0,
0,
0,
0,
0,
0,
0,
0,
0,
0,
0,
0,
0,
0,
0,
0,
0,
0,
0,
0,
0,
0,
0,
0,
0,
0,
0,
0,
0,
0,
0,
0,
0,
0,
0,
0,
1,
0,
0,
0,
0,
0,
0,
0,
0,
0,
0,
0,
0,
0,
0,
0,
0,
0,
0,
0,
0,
0,
0,
0,
0,
0,
0,
0,
0,
0,
0,
0,
0,
0,
0,
0,
0,
0,
0,
0,
0,
0,
0,
0,
0,
0,
0,
0,
0,
0,
0,
0,
0,
0,
0,
0,
0,
0,
0,
0,
0,
0,
0,
0,
0,
0,
0,
0,
0,
0,
0,
0,
0,
0,
0,
0,
0,
0,
0,
0,
0,
0,
0,
0,
0,
0,
0,
#ENDOFDATA   :

File: SPI MM1 Andradite[3][4].msa
#FORMAT      : EMSA/MAS Spectral Data File
#VERSION     : 1.0
#TITLE       : SPI MM1 Andradite[3][all]
#DATE        : 11-MAR-2025
#TIME        : 13:10
#OWNER       : Unknown
#NPOINTS     : 4096
#NCOLUMNS    : 1
#XUNITS      : eV
#YUNITS      : counts
#DATATYPE    : Y
#XPERCHAN    : 9.99778
#OFFSET      : 1.69135
#BEAMKV      : 20
#SIGNALTYPE  : EDS
#ELEVANGLE   : 35
#AZIMANGLE   : 0
#LIVETIME    : 239.873
#REALTIME    : 255.4
#PROBECUR    : 1.02699
#TAUWIND     : 0
#TDEADLYR    : 0
#TACTLYR     : 0.045
#TALWIND     : 0.025
#CHOFFSET    : 0.0
#XLABEL      : Energy (eV)
#YLABEL      : Counts
#XPOSITION   : -2.26362
#YPOSITION   : -7.98513
#ZPOSITION   : 30.9284
#EDSDET      : SD
##SPECIMEN   : SPI MM1 Andradite[3][all]
##D2STDCMP   : Andradite,(O:37.7805),(Si:16.5802),(Ca:23.6603),(Fe:21.979),3.86
##DET_HASH   : 12273538-fd48-a23f-0a19-f1e6fa85caef
##CALIB_HASH : 6abaa72c-aa41-8738-0be9-f592914732f3
##WORKING    : 15.0 mm
##DET_NAME   : EDAX All
##DET_MODE   : MediumLE
#SPECTRUM    :
33,
219,
12649,
3994,
31753,
13517,
2626,
2823,
3461,
4063,
5749,
12152,
42566,
21111,
4582,
3335,
3613,
3345,
3263,
3246,
3163,
3191,
3109,
3075,
2811,
3451,
61940,
21322,
5015,
11119,
2143,
1884,
1971,
1976,
1816,
1704,
1693,
1673,
1595,
1745,
1504,
1444,
2038,
1425,
1413,
8664,
24949,
1551,
1156,
1274,
3897,
2373,
956,
1071,
945,
919,
825,
865,
886,
775,
727,
729,
729,
721,
725,
682,
647,
633,
590,
520,
619,
547,
580,
507,
486,
478,
500,
426,
406,
402,
354,
407,
369,
362,
398,
320,
315,
314,
296,
255,
264,
268,
220,
235,
211,
211,
213,
186,
196,
180,
185,
166,
133,
158,
131,
141,
113,
123,
111,
105,
99,
83,
83,
72,
70,
73,
47,
48,
53,
49,
43,
44,
38,
33,
35,
32,
26,
21,
36,
20,
20,
23,
19,
10,
15,
4,
11,
5,
3,
6,
7,
3,
2,
0,
1,
1,
3,
0,
2,
0,
1,
0,
0,
1,
0,
1,
0,
0,
0,
0,
1,
0,
0,
0,
0,
1,
0,
0,
0,
0,
0,
0,
1,
1,
0,
0,
0,
0,
0,
0,
0,
0,
0,
0,
0,
0,
0,
0,
0,
0,
0,
0,
0,
0,
0,
0,
0,
0,
0,
0,
0,
1,
0,
0,
0,
0,
0,
0,
0,
0,
0,
0,
0,
0,
0,
0,
0,
0,
0,
0,
0,
0,
0,
0,
0,
0,
0,
0,
0,
0,
0,
0,
0,
0,
0,
0,
0,
0,
0,
0,
0,
0,
0,
0,
0,
0,
0,
0,
0,
0,
0,
0,
0,
0,
0,
0,
0,
0,
0,
0,
0,
0,
0,
0,
0,
0,
0,
0,
0,
0,
0,
0,
0,
0,
0,
0,
0,
0,
0,
0,
0,
0,
0,
0,
0,
0,
0,
0,
0,
0,
0,
0,
0,
0,
#ENDOFDATA   :

File: SPI MM1 Andradite[4][4].msa
#FORMAT      : EMSA/MAS Spectral Data File
#VERSION     : 1.0
#TITLE       : SPI MM1 Andradite[4][all]
#DATE        : 11-MAR-2025
#TIME        : 13:11
#OWNER       : Unknown
#NPOINTS     : 4096
#NCOLUMNS    : 1
#XUNITS      : eV
#YUNITS      : counts
#DATATYPE    : Y
#XPERCHAN    : 9.99778
#OFFSET      : 1.69135
#BEAMKV      : 20
#SIGNALTYPE  : EDS
#ELEVANGLE   : 35
#AZIMANGLE   : 0
#LIVETIME    : 239.7462
#REALTIME    : 255.084
#PROBECUR    : 1.02699
#TAUWIND     : 0
#TDEADLYR    : 0
#TACTLYR     : 0.045
#TALWIND     : 0.025
#CHOFFSET    : 0.0
#XLABEL      : Energy (eV)
#YLABEL      : Counts
#XPOSITION   : -2.20924
#YPOSITION   : -8.047
#ZPOSITION   : 30.9284
#EDSDET      : SD
##SPECIMEN   : SPI MM1 Andradite[4][all]
##D2STDCMP   : Andradite,(O:37.7805),(Si:16.5802),(Ca:23.6603),(Fe:21.979),3.86
##DET_HASH   : 12273538-fd48-a23f-0a19-f1e6fa85caef
##CALIB_HASH : 6abaa72c-aa41-8738-0be9-f592914732f3
##WORKING    : 15.0 mm
##DET_NAME   : EDAX All
##DET_MODE   : MediumLE
#SPECTRUM    :
20,
193,
14606,
4024,
31810,
13170,
2503,
2880,
3479,
4083,
5515,
11474,
40299,
19867,
4596,
3371,
3665,
3274,
3342,
3249,
3149,
3065,
3027,
2901,
2830,
3432,
65232,
22499,
5063,
11518,
2151,
1904,
1832,
1839,
1833,
1721,
1638,
1627,
1678,
1691,
1456,
1539,
1891,
1372,
1395,
8327,
23634,
1435,
1178,
1227,
3599,
2369,
964,
1047,
921,
908,
860,
846,
791,
791,
748,
777,
695,
709,
674,
649,
603,
610,
614,
573,
541,
558,
575,
490,
481,
480,
480,
477,
426,
429,
399,
384,
344,
336,
321,
303,
296,
301,
270,
280,
268,
235,
242,
241,
223,
202,
185,
194,
164,
169,
171,
137,
138,
141,
118,
143,
111,
121,
108,
94,
87,
87,
64,
79,
55,
69,
68,
54,
48,
50,
50,
42,
43,
32,
31,
33,
32,
32,
20,
21,
13,
22,
14,
20,
13,
4,
10,
5,
7,
8,
6,
1,
0,
2,
1,
0,
0,
0,
1,
0,
0,
0,
0,
0,
1,
0,
0,
0,
0,
1,
0,
0,
0,
0,
0,
0,
0,
0,
0,
0,
0,
0,
0,
0,
0,
1,
0,
0,
0,
1,
0,
0,
0,
0,
0,
0,
0,
0,
0,
0,
0,
0,
0,
0,
0,
0,
0,
0,
0,
0,
0,
0,
0,
0,
0,
0,
0,
0,
0,
0,
0,
0,
0,
0,
0,
0,
0,
0,
0,
0,
0,
0,
0,
0,
0,
0,
0,
0,
0,
0,
0,
0,
0,
0,
0,
0,
0,
0,
0,
0,
0,
0,
0,
0,
0,
0,
0,
0,
0,
0,
0,
0,
0,
0,
0,
0,
0,
0,
0,
0,
0,
0,
0,
0,
0,
0,
0,
0,
0,
0,
0,
0,
0,
0,
0,
0,
0,
0,
0,
0,
0,
0,
0,
0,
0,
0,
0,
0,
0,
0,
0,
0,
0,
0,
#ENDOFDATA   :

File: SPI MM1 Andradite[5][4].msa
#FORMAT      : EMSA/MAS Spectral Data File
#VERSION     : 1.0
#TITLE       : SPI MM1 Andradite[5][all]
#DATE        : 11-MAR-2025
#TIME        : 13:12
#OWNER       : Unknown
#NPOINTS     : 4096
#NCOLUMNS    : 1
#XUNITS      : eV
#YUNITS      : counts
#DATATYPE    : Y
#XPERCHAN    : 9.99778
#OFFSET      : 1.69135
#BEAMKV      : 20
#SIGNALTYPE  : EDS
#ELEVANGLE   : 35
#AZIMANGLE   : 0
#LIVETIME    : 239.882
#REALTIME    : 255.401
#PROBECUR    : 1.02699
#TAUWIND     : 0
#TDEADLYR    : 0
#TACTLYR     : 0.045
#TALWIND     : 0.025
#CHOFFSET    : 0.0
#XLABEL      : Energy (eV)
#YLABEL      : Counts
#XPOSITION   : -2.19565
#YPOSITION   : -8.06884
#ZPOSITION   : 30.9284
#EDSDET      : SD
##SPECIMEN   : SPI MM1 Andradite[5][all]
##D2STDCMP   : Andradite,(O:37.7805),(Si:16.5802),(Ca:23.6603),(Fe:21.979),3.86
##DET_HASH   : 12273538-fd48-a23f-0a19-f1e6fa85caef
##CALIB_HASH : 6abaa72c-aa41-8738-0be9-f592914732f3
##WORKING    : 15.0 mm
##DET_NAME   : EDAX All
##DET_MODE   : MediumLE
#SPECTRUM    :
29,
183,
12865,
3929,
31559,
13868,
2481,
2842,
3419,
4117,
5665,
11394,
42258,
21242,
4475,
3428,
3600,
3362,
3353,
3286,
3305,
3058,
3092,
3048,
2869,
3391,
61816,
21238,
4881,
11176,
2078,
1968,
1908,
1968,
1830,
1752,
1699,
1630,
1619,
1719,
1565,
1567,
1911,
1499,
1447,
9027,
25914,
1513,
1140,
1249,
3965,
2607,
952,
1008,
933,
921,
876,
846,
927,
787,
744,
707,
733,
746,
665,
610,
608,
653,
623,
578,
561,
542,
566,
495,
487,
461,
469,
435,
437,
403,
357,
377,
388,
356,
358,
309,
300,
356,
292,
309,
268,
256,
231,
238,
254,
213,
221,
192,
161,
156,
171,
171,
156,
150,
124,
117,
118,
107,
108,
98,
94,
86,
78,
71,
85,
59,
70,
61,
55,
48,
55,
51,
53,
49,
43,
31,
27,
27,
29,
17,
22,
25,
17,
17,
13,
13,
8,
10,
10,
3,
6,
4,
1,
1,
1,
0,
1,
1,
1,
0,
0,
0,
0,
0,
0,
0,
0,
0,
1,
0,
0,
0,
1,
0,
0,
0,
0,
0,
0,
0,
0,
0,
1,
0,
0,
0,
0,
0,
0,
0,
0,
0,
0,
0,
0,
0,
0,
0,
0,
0,
0,
0,
0,
0,
0,
0,
0,
0,
0,
0,
0,
0,
0,
0,
0,
0,
0,
0,
0,
0,
0,
0,
0,
0,
0,
0,
0,
0,
0,
0,
0,
0,
0,
0,
0,
0,
0,
0,
0,
0,
0,
0,
0,
0,
0,
0,
0,
0,
0,
0,
0,
0,
0,
0,
0,
0,
0,
0,
0,
0,
0,
0,
0,
0,
0,
0,
0,
0,
0,
0,
0,
0,
0,
0,
0,
0,
0,
0,
0,
0,
0,
0,
0,
0,
0,
0,
0,
0,
0,
0,
0,
0,
0,
0,
0,
0,
0,
0,
0,
0,
0,
0,
0,
0,
#ENDOFDATA   :