Folder: spex_quant/N132962/Quantification/MMM1 (part 7)

File: SPI MM1 Hematite[6][4].msa
#FORMAT      : EMSA/MAS Spectral Data File
#VERSION     : 1.0
#TITLE       : SPI MM1dup Hematite[6][all]
#DATE        : 12-MAR-2025
#TIME        : 16:53
#OWNER       : Unknown
#NPOINTS     : 4096
#NCOLUMNS    : 1
#XUNITS      : eV
#YUNITS      : counts
#DATATYPE    : Y
#XPERCHAN    : 9.99778
#OFFSET      : 1.69135
#BEAMKV      : 20
#SIGNALTYPE  : EDS
#ELEVANGLE   : 35
#AZIMANGLE   : 0
#LIVETIME    : 239.804
#REALTIME    : 256.684
#PROBECUR    : 1.026781
#TAUWIND     : 0
#TDEADLYR    : 0
#TACTLYR     : 0.045
#TALWIND     : 0.025
#CHOFFSET    : 0.0
#XLABEL      : Energy (eV)
#YLABEL      : Counts
#XPOSITION   : 3.65796
#YPOSITION   : 4.18849
#ZPOSITION   : 31.03608
#EDSDET      : SD
##SPECIMEN   : SPI MM1dup Hematite[6][all]
##D2STDCMP   : Hematite,(O:30.0574),(Fe:69.9426),5.0
##DET_HASH   : 12273538-fd48-a23f-0a19-f1e6fa85caef
##CALIB_HASH : 6abaa72c-aa41-8738-0be9-f592914732f3
##WORKING    : 15.0 mm
##DET_NAME   : EDAX All
##DET_MODE   : MediumLE
#SPECTRUM    :
30,
269,
11100,
9810,
71144,
54650,
2305,
2387,
2811,
3369,
3664,
4170,
4615,
4871,
4212,
4208,
4317,
4312,
4204,
4080,
4139,
3877,
3738,
3646,
3605,
3491,
3377,
3250,
2966,
3124,
3025,
2847,
2786,
3081,
2777,
2537,
2382,
2325,
2428,
2244,
2221,
2052,
2043,
2039,
2269,
34803,
105675,
2903,
1800,
2268,
13623,
7772,
1238,
1316,
1248,
1106,
1130,
1122,
1043,
1081,
1010,
968,
940,
916,
955,
933,
926,
803,
858,
815,
756,
740,
738,
662,
673,
636,
597,
594,
573,
570,
555,
493,
513,
485,
469,
460,
477,
431,
439,
375,
398,
417,
382,
325,
332,
284,
328,
310,
264,
240,
223,
246,
220,
198,
192,
199,
172,
185,
142,
147,
151,
133,
152,
121,
108,
101,
85,
90,
81,
80,
82,
64,
69,
57,
48,
54,
43,
35,
30,
32,
38,
32,
27,
18,
20,
18,
16,
15,
15,
10,
6,
7,
3,
0,
0,
3,
2,
1,
0,
1,
1,
0,
1,
1,
0,
0,
0,
0,
0,
2,
1,
0,
0,
0,
1,
2,
2,
0,
0,
0,
1,
0,
0,
0,
1,
0,
0,
0,
0,
0,
0,
0,
0,
0,
0,
0,
0,
0,
0,
0,
0,
0,
0,
0,
0,
0,
0,
0,
0,
0,
0,
0,
0,
0,
0,
0,
0,
0,
0,
0,
0,
0,
0,
0,
0,
0,
0,
0,
0,
0,
0,
0,
0,
0,
0,
0,
0,
0,
0,
0,
0,
0,
0,
0,
0,
0,
0,
0,
0,
0,
0,
0,
0,
0,
0,
0,
0,
0,
0,
0,
0,
0,
0,
0,
0,
0,
0,
0,
0,
0,
0,
0,
0,
0,
0,
0,
0,
0,
0,
0,
0,
0,
0,
0,
0,
0,
0,
0,
0,
0,
0,
0,
0,
0,
0,
0,
0,
0,
0,
0,
0,
0,
0,
0,
#ENDOFDATA   :

File: SPI MM1 Jadeite[1][4].msa
#FORMAT      : EMSA/MAS Spectral Data File
#VERSION     : 1.0
#TITLE       : SPI MM1dup Jadeite[1][all]
#DATE        : 12-MAR-2025
#TIME        : 16:30
#OWNER       : Unknown
#NPOINTS     : 4096
#NCOLUMNS    : 1
#XUNITS      : eV
#YUNITS      : counts
#DATATYPE    : Y
#XPERCHAN    : 9.99778
#OFFSET      : 1.69135
#BEAMKV      : 20
#SIGNALTYPE  : EDS
#ELEVANGLE   : 35
#AZIMANGLE   : 0
#LIVETIME    : 239.778
#REALTIME    : 255.53
#PROBECUR    : 1.02709
#TAUWIND     : 0
#TDEADLYR    : 0
#TACTLYR     : 0.045
#TALWIND     : 0.025
#CHOFFSET    : 0.0
#XLABEL      : Energy (eV)
#YLABEL      : Counts
#XPOSITION   : 0.97132
#YPOSITION   : 4.47306
#ZPOSITION   : 31.03608
#EDSDET      : SD
##SPECIMEN   : SPI MM1dup Jadeite[1][all]
##D2STDCMP   : Jadeite,(O:47.4904),(Na:11.3733),(Al:13.348),(Si:27.7883),5.0
##DET_HASH   : 12273538-fd48-a23f-0a19-f1e6fa85caef
##CALIB_HASH : 6abaa72c-aa41-8738-0be9-f592914732f3
##WORKING    : 15.0 mm
##DET_NAME   : EDAX All
##DET_MODE   : MediumLE
#SPECTRUM    :
30,
187,
7760,
6288,
65517,
2100,
2832,
17470,
6212,
4904,
10199,
38891,
60288,
28417,
2233,
2082,
2712,
2221,
2115,
2047,
2228,
2105,
1956,
2273,
1839,
2051,
2244,
1816,
1689,
1587,
1495,
1468,
1521,
1333,
1337,
1276,
1191,
1229,
1159,
1129,
1067,
1042,
1010,
944,
928,
975,
1024,
847,
791,
774,
743,
742,
702,
710,
650,
656,
639,
615,
602,
593,
549,
516,
543,
472,
488,
441,
455,
398,
393,
407,
356,
323,
359,
345,
356,
318,
280,
267,
280,
234,
263,
241,
252,
238,
216,
214,
191,
200,
182,
177,
154,
151,
163,
141,
137,
144,
121,
103,
90,
117,
116,
108,
87,
88,
79,
65,
69,
73,
57,
59,
71,
53,
49,
42,
49,
51,
31,
35,
38,
30,
32,
22,
31,
24,
31,
13,
20,
18,
17,
14,
7,
10,
2,
9,
9,
6,
4,
6,
2,
1,
2,
2,
1,
0,
0,
0,
0,
0,
0,
0,
0,
0,
0,
0,
0,
0,
0,
0,
0,
0,
0,
0,
0,
0,
0,
0,
0,
0,
0,
0,
0,
0,
0,
0,
0,
0,
0,
0,
0,
0,
0,
0,
0,
0,
0,
0,
0,
0,
0,
0,
0,
0,
0,
0,
0,
0,
0,
0,
0,
0,
0,
0,
0,
0,
0,
0,
0,
0,
0,
0,
0,
0,
0,
0,
0,
0,
0,
0,
0,
0,
0,
0,
0,
0,
0,
0,
0,
0,
0,
0,
0,
0,
0,
0,
0,
0,
0,
0,
0,
0,
0,
0,
0,
0,
0,
0,
0,
0,
0,
0,
0,
0,
0,
0,
0,
0,
0,
0,
0,
0,
0,
0,
0,
0,
0,
0,
0,
0,
0,
0,
0,
0,
0,
0,
0,
0,
0,
0,
0,
0,
0,
0,
0,
0,
0,
0,
0,
0,
0,
0,
0,
0,
0,
0,
#ENDOFDATA   :

File: SPI MM1 Jadeite[3][4].msa
#FORMAT      : EMSA/MAS Spectral Data File
#VERSION     : 1.0
#TITLE       : SPI MM1dup Jadeite[3][all]
#DATE        : 12-MAR-2025
#TIME        : 16:32
#OWNER       : Unknown
#NPOINTS     : 4096
#NCOLUMNS    : 1
#XUNITS      : eV
#YUNITS      : counts
#DATATYPE    : Y
#XPERCHAN    : 9.99778
#OFFSET      : 1.69135
#BEAMKV      : 20
#SIGNALTYPE  : EDS
#ELEVANGLE   : 35
#AZIMANGLE   : 0
#LIVETIME    : 239.756
#REALTIME    : 255.534
#PROBECUR    : 1.02709
#TAUWIND     : 0
#TDEADLYR    : 0
#TACTLYR     : 0.045
#TALWIND     : 0.025
#CHOFFSET    : 0.0
#XLABEL      : Energy (eV)
#YLABEL      : Counts
#XPOSITION   : 0.96273
#YPOSITION   : 4.30414
#ZPOSITION   : 31.03608
#EDSDET      : SD
##SPECIMEN   : SPI MM1dup Jadeite[3][all]
##D2STDCMP   : Jadeite,(O:47.4904),(Na:11.3733),(Al:13.348),(Si:27.7883),5.0
##DET_HASH   : 12273538-fd48-a23f-0a19-f1e6fa85caef
##CALIB_HASH : 6abaa72c-aa41-8738-0be9-f592914732f3
##WORKING    : 15.0 mm
##DET_NAME   : EDAX All
##DET_MODE   : MediumLE
#SPECTRUM    :
21,
189,
7688,
6273,
66241,
2072,
2832,
18175,
6456,
3940,
10268,
39470,
60322,
28511,
2158,
2125,
2604,
2155,
2236,
2069,
2200,
2015,
1922,
2216,
1902,
2077,
1974,
1734,
1617,
1607,
1612,
1436,
1456,
1369,
1284,
1282,
1197,
1207,
1156,
1164,
1076,
1084,
1019,
969,
925,
942,
986,
801,
814,
738,
817,
752,
769,
733,
683,
627,
626,
608,
569,
550,
524,
535,
518,
531,
451,
435,
425,
431,
393,
400,
376,
361,
338,
331,
332,
360,
307,
275,
273,
259,
235,
278,
257,
203,
214,
185,
190,
209,
164,
149,
152,
160,
136,
122,
138,
138,
133,
108,
114,
113,
96,
109,
104,
85,
76,
70,
75,
85,
49,
67,
63,
59,
48,
43,
46,
43,
36,
36,
45,
33,
32,
28,
23,
24,
14,
17,
21,
10,
10,
20,
11,
13,
7,
6,
4,
3,
4,
5,
0,
3,
2,
0,
0,
1,
0,
0,
0,
0,
0,
0,
0,
0,
0,
0,
0,
0,
0,
0,
0,
0,
0,
0,
0,
0,
0,
0,
0,
0,
0,
0,
0,
0,
0,
0,
0,
0,
0,
0,
0,
0,
0,
0,
0,
0,
0,
0,
0,
0,
0,
0,
0,
0,
0,
0,
0,
0,
0,
0,
0,
0,
0,
0,
0,
0,
0,
0,
0,
0,
0,
0,
0,
0,
0,
0,
0,
0,
0,
0,
0,
0,
0,
0,
0,
0,
0,
0,
0,
0,
0,
0,
0,
0,
0,
0,
0,
0,
0,
0,
0,
1,
0,
0,
0,
0,
0,
0,
0,
0,
0,
0,
0,
0,
0,
0,
0,
0,
0,
0,
0,
0,
0,
0,
0,
0,
0,
0,
0,
0,
0,
0,
0,
0,
0,
0,
0,
0,
0,
0,
0,
0,
0,
0,
0,
0,
0,
0,
0,
0,
0,
0,
0,
0,
0,
0,
#ENDOFDATA   :

File: SPI MM1 Jadeite[5][4].msa
#FORMAT      : EMSA/MAS Spectral Data File
#VERSION     : 1.0
#TITLE       : SPI MM1dup Jadeite[5][all]
#DATE        : 12-MAR-2025
#TIME        : 16:35
#OWNER       : Unknown
#NPOINTS     : 4096
#NCOLUMNS    : 1
#XUNITS      : eV
#YUNITS      : counts
#DATATYPE    : Y
#XPERCHAN    : 9.99778
#OFFSET      : 1.69135
#BEAMKV      : 20
#SIGNALTYPE  : EDS
#ELEVANGLE   : 35
#AZIMANGLE   : 0
#LIVETIME    : 239.76
#REALTIME    : 255.549
#PROBECUR    : 1.02709
#TAUWIND     : 0
#TDEADLYR    : 0
#TACTLYR     : 0.045
#TALWIND     : 0.025
#CHOFFSET    : 0.0
#XLABEL      : Energy (eV)
#YLABEL      : Counts
#XPOSITION   : 0.87532
#YPOSITION   : 4.38971
#ZPOSITION   : 31.03608
#EDSDET      : SD
##SPECIMEN   : SPI MM1dup Jadeite[5][all]
##D2STDCMP   : Jadeite,(O:47.4904),(Na:11.3733),(Al:13.348),(Si:27.7883),5.0
##DET_HASH   : 12273538-fd48-a23f-0a19-f1e6fa85caef
##CALIB_HASH : 6abaa72c-aa41-8738-0be9-f592914732f3
##WORKING    : 15.0 mm
##DET_NAME   : EDAX All
##DET_MODE   : MediumLE
#SPECTRUM    :
29,
185,
7683,
6280,
66459,
2114,
2835,
18134,
6442,
3749,
10361,
39650,
60556,
28634,
2171,
2073,
2654,
2087,
2202,
2112,
2209,
2028,
1999,
2197,
1871,
2145,
1899,
1775,
1641,
1657,
1483,
1410,
1413,
1402,
1337,
1262,
1255,
1142,
1139,
1117,
1028,
1028,
1010,
950,
975,
970,
951,
787,
807,
762,
773,
690,
688,
740,
699,
583,
568,
610,
574,
516,
488,
527,
473,
515,
454,
487,
399,
399,
426,
349,
350,
366,
373,
324,
301,
299,
320,
293,
267,
281,
240,
260,
235,
246,
221,
184,
210,
175,
198,
168,
137,
160,
149,
149,
134,
124,
137,
125,
116,
103,
94,
65,
75,
94,
88,
67,
65,
64,
63,
57,
60,
54,
54,
53,
32,
39,
42,
36,
22,
33,
38,
35,
24,
22,
11,
19,
30,
16,
13,
13,
10,
10,
9,
12,
4,
3,
5,
5,
4,
4,
1,
1,
0,
0,
0,
0,
0,
0,
0,
1,
1,
0,
1,
0,
0,
0,
0,
0,
0,
0,
0,
0,
0,
0,
0,
0,
0,
0,
0,
0,
0,
0,
0,
0,
0,
0,
0,
0,
0,
0,
0,
0,
0,
0,
0,
0,
0,
0,
0,
0,
0,
0,
0,
0,
0,
0,
0,
0,
0,
0,
0,
0,
0,
0,
0,
0,
0,
0,
0,
0,
0,
0,
0,
0,
0,
0,
0,
0,
0,
0,
0,
0,
0,
0,
0,
0,
0,
0,
0,
0,
0,
0,
0,
0,
0,
0,
0,
0,
0,
0,
0,
0,
0,
0,
0,
0,
0,
0,
0,
0,
0,
0,
0,
0,
0,
0,
0,
0,
0,
0,
0,
0,
0,
0,
0,
0,
0,
0,
0,
0,
0,
0,
0,
0,
0,
0,
0,
0,
0,
0,
0,
0,
0,
0,
0,
0,
0,
0,
0,
0,
0,
0,
0,
0,
#ENDOFDATA   :

File: SPI MM1 Kaersutite[0][4].msa
#FORMAT      : EMSA/MAS Spectral Data File
#VERSION     : 1.0
#TITLE       : SPI MM1dup Kaersutite[0][all]
#DATE        : 12-MAR-2025
#TIME        : 16:20
#OWNER       : Unknown
#NPOINTS     : 4096
#NCOLUMNS    : 1
#XUNITS      : eV
#YUNITS      : counts
#DATATYPE    : Y
#XPERCHAN    : 9.99778
#OFFSET      : 1.69135
#BEAMKV      : 20
#SIGNALTYPE  : EDS
#ELEVANGLE   : 35
#AZIMANGLE   : 0
#LIVETIME    : 239.742
#REALTIME    : 254.373
#PROBECUR    : 1.02709
#TAUWIND     : 0
#TDEADLYR    : 0
#TACTLYR     : 0.045
#TALWIND     : 0.025
#CHOFFSET    : 0.0
#XLABEL      : Energy (eV)
#YLABEL      : Counts
#XPOSITION   : -1.62807
#YPOSITION   : 3.58502
#ZPOSITION   : 31.03608
#EDSDET      : SD
##SPECIMEN   : SPI MM1dup Kaersutite[0][all]
##DET_HASH   : 12273538-fd48-a23f-0a19-f1e6fa85caef
##CALIB_HASH : 6abaa72c-aa41-8738-0be9-f592914732f3
##WORKING    : 15.0 mm
##DET_NAME   : EDAX All
##DET_MODE   : MediumLE
#SPECTRUM    :
22,
166,
9674,
5692,
43613,
8845,
2523,
4902,
4225,
54367,
6773,
20007,
42194,
20867,
3162,
2722,
2982,
2665,
2736,
2804,
2624,
2621,
2423,
2950,
4763,
2532,
21844,
8459,
2868,
4955,
1811,
1834,
10240,
2568,
1667,
2782,
1716,
1428,
1346,
1366,
1248,
1268,
1460,
1170,
1170,
4917,
13507,
1100,
952,
1024,
2296,
1548,
801,
870,
833,
831,
707,
709,
729,
672,
652,
657,
619,
590,
594,
586,
555,
492,
518,
531,
476,
456,
428,
355,
412,
383,
383,
348,
356,
327,
311,
332,
292,
260,
275,
286,
229,
215,
236,
219,
208,
188,
193,
180,
192,
181,
148,
147,
148,
146,
138,
135,
99,
92,
95,
90,
74,
103,
83,
75,
86,
79,
61,
60,
54,
52,
51,
46,
40,
38,
28,
44,
25,
28,
19,
25,
32,
28,
16,
15,
23,
12,
21,
11,
8,
5,
6,
4,
9,
5,
1,
1,
1,
0,
1,
0,
0,
0,
0,
0,
0,
0,
1,
0,
0,
0,
0,
0,
0,
0,
0,
0,
0,
0,
0,
0,
0,
0,
0,
0,
0,
0,
0,
0,
0,
0,
1,
0,
0,
0,
0,
0,
0,
0,
0,
0,
0,
0,
0,
0,
0,
0,
0,
0,
0,
0,
0,
0,
0,
0,
0,
0,
0,
0,
0,
0,
0,
0,
0,
0,
0,
0,
0,
0,
1,
0,
0,
0,
0,
0,
0,
0,
0,
0,
0,
0,
0,
0,
0,
0,
0,
0,
0,
0,
0,
0,
0,
0,
0,
0,
0,
0,
0,
0,
0,
0,
0,
0,
0,
0,
0,
0,
0,
0,
0,
0,
0,
0,
0,
0,
0,
0,
0,
0,
0,
0,
0,
0,
0,
0,
0,
0,
0,
0,
0,
0,
0,
0,
0,
0,
0,
0,
0,
0,
0,
0,
0,
0,
0,
0,
0,
0,
0,
0,
#ENDOFDATA   :

File: SPI MM1 Kaersutite[1][4].msa
#FORMAT      : EMSA/MAS Spectral Data File
#VERSION     : 1.0
#TITLE       : SPI MM1dup Kaersutite[1][all]
#DATE        : 12-MAR-2025
#TIME        : 16:21
#OWNER       : Unknown
#NPOINTS     : 4096
#NCOLUMNS    : 1
#XUNITS      : eV
#YUNITS      : counts
#DATATYPE    : Y
#XPERCHAN    : 9.99778
#OFFSET      : 1.69135
#BEAMKV      : 20
#SIGNALTYPE  : EDS
#ELEVANGLE   : 35
#AZIMANGLE   : 0
#LIVETIME    : 239.871
#REALTIME    : 254.497
#PROBECUR    : 1.02709
#TAUWIND     : 0
#TDEADLYR    : 0
#TACTLYR     : 0.045
#TALWIND     : 0.025
#CHOFFSET    : 0.0
#XLABEL      : Energy (eV)
#YLABEL      : Counts
#XPOSITION   : -1.60494
#YPOSITION   : 3.57862
#ZPOSITION   : 31.03608
#EDSDET      : SD
##SPECIMEN   : SPI MM1dup Kaersutite[1][all]
##DET_HASH   : 12273538-fd48-a23f-0a19-f1e6fa85caef
##CALIB_HASH : 6abaa72c-aa41-8738-0be9-f592914732f3
##WORKING    : 15.0 mm
##DET_NAME   : EDAX All
##DET_MODE   : MediumLE
#SPECTRUM    :
20,
193,
9726,
5785,
43310,
8530,
2502,
4882,
4166,
53913,
6752,
20095,
42221,
21174,
2992,
2791,
3081,
2788,
2719,
2805,
2705,
2553,
2496,
2955,
4961,
2642,
22232,
8412,
2781,
4797,
1840,
1821,
10400,
2545,
1635,
2761,
1611,
1476,
1393,
1415,
1280,
1242,
1417,
1150,
1202,
4973,
13428,
1124,
978,
1014,
2336,
1609,
827,
830,
789,
768,
745,
741,
713,
717,
667,
653,
547,
623,
575,
568,
510,
527,
468,
495,
486,
427,
464,
415,
414,
373,
418,
327,
353,
326,
315,
311,
267,
273,
300,
278,
238,
275,
227,
209,
212,
203,
215,
198,
176,
158,
145,
172,
144,
159,
131,
114,
109,
93,
131,
99,
76,
90,
99,
82,
66,
57,
65,
64,
61,
65,
56,
51,
42,
38,
35,
25,
27,
38,
32,
36,
15,
29,
13,
23,
14,
13,
17,
11,
11,
7,
6,
5,
7,
3,
6,
3,
2,
1,
0,
0,
0,
0,
0,
1,
0,
0,
0,
0,
0,
0,
0,
0,
0,
0,
0,
0,
0,
0,
0,
0,
0,
0,
0,
1,
0,
0,
0,
0,
0,
0,
0,
0,
0,
0,
0,
0,
0,
0,
0,
0,
0,
0,
0,
0,
0,
0,
0,
0,
0,
0,
0,
0,
0,
0,
0,
0,
0,
0,
0,
0,
0,
0,
0,
0,
0,
0,
0,
0,
0,
0,
0,
0,
0,
0,
0,
0,
0,
0,
0,
0,
0,
0,
0,
0,
0,
0,
0,
0,
0,
0,
0,
0,
0,
0,
0,
0,
0,
0,
0,
0,
0,
0,
0,
0,
0,
0,
0,
0,
0,
0,
0,
0,
0,
0,
0,
0,
0,
0,
0,
0,
0,
0,
0,
0,
0,
0,
0,
0,
0,
0,
0,
0,
0,
0,
0,
0,
0,
0,
0,
0,
0,
0,
0,
0,
0,
0,
0,
0,
#ENDOFDATA   :

File: SPI MM1 Kaersutite[3][4].msa
#FORMAT      : EMSA/MAS Spectral Data File
#VERSION     : 1.0
#TITLE       : SPI MM1dup Kaersutite[3][all]
#DATE        : 12-MAR-2025
#TIME        : 16:23
#OWNER       : Unknown
#NPOINTS     : 4096
#NCOLUMNS    : 1
#XUNITS      : eV
#YUNITS      : counts
#DATATYPE    : Y
#XPERCHAN    : 9.99778
#OFFSET      : 1.69135
#BEAMKV      : 20
#SIGNALTYPE  : EDS
#ELEVANGLE   : 35
#AZIMANGLE   : 0
#LIVETIME    : 239.7545
#REALTIME    : 254.38
#PROBECUR    : 1.02709
#TAUWIND     : 0
#TDEADLYR    : 0
#TACTLYR     : 0.045
#TALWIND     : 0.025
#CHOFFSET    : 0.0
#XLABEL      : Energy (eV)
#YLABEL      : Counts
#XPOSITION   : -1.62254
#YPOSITION   : 3.58434
#ZPOSITION   : 31.03608
#EDSDET      : SD
##SPECIMEN   : SPI MM1dup Kaersutite[3][all]
##DET_HASH   : 12273538-fd48-a23f-0a19-f1e6fa85caef
##CALIB_HASH : 6abaa72c-aa41-8738-0be9-f592914732f3
##WORKING    : 15.0 mm
##DET_NAME   : EDAX All
##DET_MODE   : MediumLE
#SPECTRUM    :
23,
208,
9555,
5926,
43376,
8710,
2542,
4926,
4161,
53614,
6777,
20412,
42267,
21129,
3081,
2647,
2990,
2769,
2842,
2765,
2700,
2617,
2449,
3021,
4880,
2545,
21932,
8366,
2747,
4815,
1809,
1858,
10244,
2569,
1767,
2736,
1625,
1411,
1352,
1401,
1315,
1202,
1428,
1175,
1129,
4940,
13320,
1150,
960,
972,
2337,
1640,
825,
834,
794,
764,
804,
731,
732,
690,
654,
643,
602,
614,
576,
531,
522,
489,
469,
455,
480,
425,
431,
421,
379,
360,
377,
361,
364,
304,
316,
273,
276,
295,
242,
281,
267,
204,
251,
213,
220,
186,
177,
200,
169,
154,
162,
142,
150,
121,
137,
108,
106,
111,
101,
96,
110,
83,
75,
69,
64,
64,
62,
59,
61,
56,
39,
46,
46,
38,
29,
45,
38,
32,
26,
12,
36,
26,
17,
21,
16,
14,
10,
7,
10,
9,
6,
5,
4,
3,
2,
1,
1,
1,
1,
1,
0,
0,
0,
0,
0,
0,
0,
0,
0,
0,
0,
0,
0,
0,
0,
1,
1,
0,
0,
0,
0,
0,
0,
0,
1,
0,
0,
0,
1,
0,
0,
0,
0,
0,
0,
0,
0,
0,
0,
0,
0,
0,
0,
0,
0,
0,
0,
0,
0,
0,
0,
0,
0,
0,
0,
0,
0,
0,
0,
0,
0,
0,
0,
0,
0,
0,
0,
0,
0,
0,
0,
0,
0,
0,
0,
0,
0,
0,
0,
0,
0,
0,
0,
0,
0,
0,
0,
0,
0,
0,
0,
0,
0,
0,
0,
0,
0,
0,
0,
0,
0,
0,
0,
0,
0,
0,
0,
0,
0,
0,
0,
0,
0,
0,
0,
0,
0,
0,
0,
0,
0,
0,
0,
0,
0,
0,
0,
0,
0,
0,
0,
0,
0,
0,
0,
0,
0,
0,
0,
0,
0,
0,
0,
0,
0,
0,
0,
0,
#ENDOFDATA   :

File: SPI MM1 Kaersutite[7][4].msa
#FORMAT      : EMSA/MAS Spectral Data File
#VERSION     : 1.0
#TITLE       : SPI MM1dup Kaersutite[7][all]
#DATE        : 12-MAR-2025
#TIME        : 16:28
#OWNER       : Unknown
#NPOINTS     : 4096
#NCOLUMNS    : 1
#XUNITS      : eV
#YUNITS      : counts
#DATATYPE    : Y
#XPERCHAN    : 9.99778
#OFFSET      : 1.69135
#BEAMKV      : 20
#SIGNALTYPE  : EDS
#ELEVANGLE   : 35
#AZIMANGLE   : 0
#LIVETIME    : 239.585
#REALTIME    : 254.193
#PROBECUR    : 1.02709
#TAUWIND     : 0
#TDEADLYR    : 0
#TACTLYR     : 0.045
#TALWIND     : 0.025
#CHOFFSET    : 0.0
#XLABEL      : Energy (eV)
#YLABEL      : Counts
#XPOSITION   : -1.61286
#YPOSITION   : 3.60908
#ZPOSITION   : 31.03608
#EDSDET      : SD
##SPECIMEN   : SPI MM1dup Kaersutite[7][all]
##DET_HASH   : 12273538-fd48-a23f-0a19-f1e6fa85caef
##CALIB_HASH : 6abaa72c-aa41-8738-0be9-f592914732f3
##WORKING    : 15.0 mm
##DET_NAME   : EDAX All
##DET_MODE   : MediumLE
#SPECTRUM    :
15,
192,
9530,
5656,
43088,
8733,
2476,
4700,
4215,
53567,
6588,
20334,
41856,
21097,
3114,
2672,
3079,
2742,
2772,
2786,
2632,
2572,
2486,
3006,
4948,
2583,
22295,
8383,
2791,
4820,
1879,
1861,
10414,
2577,
1603,
2717,
1653,
1414,
1453,
1369,
1297,
1266,
1405,
1250,
1175,
4966,
13273,
1194,
1031,
989,
2285,
1577,
838,
910,
831,
753,
742,
709,
701,
662,
657,
652,
636,
578,
572,
554,
515,
503,
529,
478,
422,
475,
448,
426,
399,
384,
396,
361,
365,
375,
348,
305,
267,
282,
250,
277,
264,
246,
218,
235,
219,
205,
195,
178,
167,
160,
147,
169,
147,
153,
138,
133,
118,
107,
91,
91,
88,
91,
86,
76,
73,
61,
52,
63,
62,
51,
40,
59,
44,
30,
36,
38,
44,
36,
39,
19,
15,
13,
26,
17,
19,
10,
8,
9,
7,
13,
2,
9,
9,
4,
4,
3,
0,
0,
0,
1,
1,
0,
2,
0,
0,
0,
0,
0,
0,
0,
0,
0,
0,
0,
1,
0,
0,
0,
0,
0,
0,
0,
0,
0,
0,
0,
0,
0,
1,
0,
0,
0,
0,
1,
0,
0,
0,
0,
0,
0,
0,
0,
0,
0,
0,
0,
0,
0,
0,
0,
0,
0,
0,
0,
0,
0,
0,
1,
0,
0,
0,
0,
0,
0,
0,
0,
0,
0,
0,
0,
0,
0,
0,
0,
0,
0,
0,
0,
0,
0,
0,
0,
0,
0,
0,
0,
0,
0,
0,
0,
0,
0,
0,
0,
0,
0,
0,
0,
0,
0,
0,
0,
0,
0,
0,
0,
0,
0,
0,
0,
0,
0,
0,
0,
0,
0,
0,
0,
0,
0,
0,
0,
0,
0,
0,
0,
0,
0,
0,
0,
0,
0,
0,
0,
0,
0,
0,
0,
0,
0,
0,
0,
0,
0,
0,
0,
0,
0,
#ENDOFDATA   :

File: SPI MM1 Kyanite[1][4].msa
#FORMAT      : EMSA/MAS Spectral Data File
#VERSION     : 1.0
#TITLE       : SPI MM1dup Kyanite[1][all]
#DATE        : 12-MAR-2025
#TIME        : 16:11
#OWNER       : Unknown
#NPOINTS     : 4096
#NCOLUMNS    : 1
#XUNITS      : eV
#YUNITS      : counts
#DATATYPE    : Y
#XPERCHAN    : 9.99778
#OFFSET      : 1.69135
#BEAMKV      : 20
#SIGNALTYPE  : EDS
#ELEVANGLE   : 35
#AZIMANGLE   : 0
#LIVETIME    : 239.679
#REALTIME    : 256.492
#PROBECUR    : 1.02709
#TAUWIND     : 0
#TDEADLYR    : 0
#TACTLYR     : 0.045
#TALWIND     : 0.025
#CHOFFSET    : 0.0
#XLABEL      : Energy (eV)
#YLABEL      : Counts
#XPOSITION   : -4.25068
#YPOSITION   : 4.17624
#ZPOSITION   : 31.03608
#EDSDET      : SD
##SPECIMEN   : SPI MM1dup Kyanite[1][all]
##DET_HASH   : 12273538-fd48-a23f-0a19-f1e6fa85caef
##CALIB_HASH : 6abaa72c-aa41-8738-0be9-f592914732f3
##WORKING    : 15.0 mm
##DET_NAME   : EDAX All
##DET_MODE   : MediumLE
#SPECTRUM    :
25,
180,
7588,
6492,
68821,
2105,
2642,
3397,
3871,
4904,
23099,
104862,
32648,
15986,
2526,
2126,
2400,
2099,
2219,
2086,
2113,
2450,
2073,
2372,
1900,
1888,
1688,
1707,
1651,
1609,
1510,
1475,
1464,
1370,
1310,
1257,
1233,
1209,
1134,
1112,
1030,
1051,
986,
936,
908,
926,
1091,
821,
837,
812,
808,
796,
731,
716,
629,
615,
596,
579,
575,
526,
520,
510,
470,
476,
483,
424,
435,
414,
399,
392,
355,
367,
365,
329,
338,
330,
308,
298,
272,
236,
263,
233,
260,
234,
198,
171,
207,
194,
182,
173,
180,
160,
139,
146,
138,
139,
114,
116,
123,
109,
96,
99,
90,
91,
91,
88,
74,
71,
65,
58,
58,
48,
56,
53,
30,
34,
41,
37,
32,
30,
28,
18,
30,
23,
24,
27,
15,
14,
15,
12,
15,
6,
7,
8,
9,
10,
9,
7,
1,
4,
3,
1,
0,
1,
0,
0,
0,
0,
0,
0,
0,
1,
0,
0,
0,
0,
0,
0,
0,
0,
0,
0,
0,
0,
0,
0,
1,
0,
0,
0,
0,
0,
0,
0,
0,
0,
0,
0,
0,
0,
0,
0,
0,
0,
0,
0,
0,
0,
0,
0,
0,
0,
0,
0,
0,
0,
0,
0,
0,
0,
0,
0,
0,
0,
0,
0,
0,
0,
0,
0,
0,
0,
0,
0,
0,
0,
0,
0,
0,
0,
0,
0,
0,
0,
0,
0,
0,
0,
0,
0,
0,
0,
0,
0,
0,
0,
0,
0,
0,
0,
0,
0,
0,
0,
0,
0,
0,
0,
0,
0,
0,
0,
0,
0,
0,
0,
0,
0,
0,
0,
0,
0,
0,
0,
0,
0,
0,
0,
0,
0,
0,
0,
0,
0,
0,
0,
0,
0,
0,
0,
0,
0,
0,
0,
0,
0,
0,
0,
0,
0,
0,
0,
0,
0,
#ENDOFDATA   :

File: SPI MM1 Kyanite[3][4].msa
#FORMAT      : EMSA/MAS Spectral Data File
#VERSION     : 1.0
#TITLE       : SPI MM1dup Kyanite[3][all]
#DATE        : 12-MAR-2025
#TIME        : 16:14
#OWNER       : Unknown
#NPOINTS     : 4096
#NCOLUMNS    : 1
#XUNITS      : eV
#YUNITS      : counts
#DATATYPE    : Y
#XPERCHAN    : 9.99778
#OFFSET      : 1.69135
#BEAMKV      : 20
#SIGNALTYPE  : EDS
#ELEVANGLE   : 35
#AZIMANGLE   : 0
#LIVETIME    : 239.745
#REALTIME    : 256.557
#PROBECUR    : 1.02709
#TAUWIND     : 0
#TDEADLYR    : 0
#TACTLYR     : 0.045
#TALWIND     : 0.025
#CHOFFSET    : 0.0
#XLABEL      : Energy (eV)
#YLABEL      : Counts
#XPOSITION   : -4.24201
#YPOSITION   : 4.11521
#ZPOSITION   : 31.03608
#EDSDET      : SD
##SPECIMEN   : SPI MM1dup Kyanite[3][all]
##DET_HASH   : 12273538-fd48-a23f-0a19-f1e6fa85caef
##CALIB_HASH : 6abaa72c-aa41-8738-0be9-f592914732f3
##WORKING    : 15.0 mm
##DET_NAME   : EDAX All
##DET_MODE   : MediumLE
#SPECTRUM    :
22,
179,
7605,
6383,
68139,
2085,
2533,
3396,
3863,
4949,
22987,
105467,
32450,
15786,
2504,
2223,
2438,
2204,
2104,
2126,
2017,
2566,
1992,
2398,
1854,
1856,
1749,
1683,
1629,
1533,
1555,
1509,
1420,
1387,
1393,
1322,
1208,
1238,
1150,
1181,
1022,
1085,
1027,
977,
947,
1000,
1077,
776,
853,
781,
792,
728,
700,
669,
651,
671,
597,
611,
570,
533,
523,
522,
548,
498,
427,
481,
429,
449,
427,
398,
430,
385,
367,
341,
323,
314,
333,
307,
287,
257,
267,
261,
253,
236,
227,
207,
225,
190,
174,
200,
173,
150,
141,
168,
158,
121,
165,
116,
96,
103,
106,
85,
106,
93,
99,
68,
82,
76,
62,
58,
65,
60,
60,
46,
45,
66,
30,
45,
31,
36,
26,
23,
28,
21,
20,
18,
11,
17,
13,
15,
11,
10,
7,
9,
10,
9,
4,
3,
6,
2,
0,
2,
0,
0,
0,
0,
0,
0,
1,
0,
0,
0,
0,
0,
0,
0,
0,
0,
0,
0,
0,
0,
0,
0,
0,
0,
0,
0,
0,
0,
0,
0,
0,
0,
0,
0,
0,
0,
0,
0,
0,
0,
0,
0,
0,
0,
0,
0,
0,
0,
0,
0,
0,
0,
0,
0,
0,
0,
0,
0,
0,
0,
0,
0,
0,
0,
0,
0,
0,
0,
0,
0,
0,
0,
0,
0,
0,
0,
0,
0,
0,
0,
0,
0,
0,
0,
0,
0,
0,
0,
0,
0,
0,
0,
0,
0,
0,
0,
0,
0,
0,
0,
0,
0,
0,
0,
0,
0,
0,
0,
0,
0,
0,
0,
0,
0,
0,
0,
0,
0,
0,
0,
0,
0,
0,
0,
0,
0,
0,
0,
0,
0,
0,
0,
0,
0,
0,
0,
0,
0,
0,
0,
0,
0,
0,
0,
0,
0,
0,
0,
0,
0,
0,
0,
#ENDOFDATA   :