Folder: spex_quant/N132962/Quantification/MMM1 (part 4)

File: SPI MM1 Chalcopyrite[1][4].msa
#FORMAT      : EMSA/MAS Spectral Data File
#VERSION     : 1.0
#TITLE       : SPI MM1 Chalcopyrite[1][all]
#DATE        : 11-MAR-2025
#TIME        : 14:28
#OWNER       : Unknown
#NPOINTS     : 4096
#NCOLUMNS    : 1
#XUNITS      : eV
#YUNITS      : counts
#DATATYPE    : Y
#XPERCHAN    : 9.99778
#OFFSET      : 1.69135
#BEAMKV      : 20
#SIGNALTYPE  : EDS
#ELEVANGLE   : 35
#AZIMANGLE   : 0
#LIVETIME    : 239.622
#REALTIME    : 258.226
#PROBECUR    : 1.02809
#TAUWIND     : 0
#TDEADLYR    : 0
#TACTLYR     : 0.045
#TALWIND     : 0.025
#CHOFFSET    : 0.0
#XLABEL      : Energy (eV)
#YLABEL      : Counts
#XPOSITION   : -4.90794
#YPOSITION   : -3.78586
#ZPOSITION   : 30.9284
#EDSDET      : SD
##SPECIMEN   : SPI MM1 Chalcopyrite[1][all]
##D2STDCMP   : Chalcopyrite,(S:34.9407),(Fe:30.4314),(Cu:34.6279),4.2
##DET_HASH   : 12273538-fd48-a23f-0a19-f1e6fa85caef
##CALIB_HASH : 6abaa72c-aa41-8738-0be9-f592914732f3
##WORKING    : 15.0 mm
##DET_NAME   : EDAX All
##DET_MODE   : MediumLE
#SPECTRUM    :
25,
399,
10293,
3197,
12418,
38565,
10551,
26105,
3252,
3658,
4168,
4462,
5049,
5175,
4706,
5072,
58013,
45400,
9778,
3327,
3215,
3304,
3287,
3547,
3072,
3213,
3112,
2979,
3032,
2963,
2866,
2830,
2707,
3030,
2748,
2537,
2488,
2419,
2398,
2322,
2298,
2192,
2100,
2133,
2223,
16347,
47097,
2330,
1947,
2033,
7216,
4403,
1530,
1547,
1438,
1349,
1728,
23146,
15493,
1400,
1238,
1202,
1332,
3296,
3980,
1040,
957,
905,
877,
901,
873,
830,
768,
779,
810,
741,
719,
675,
675,
668,
601,
601,
571,
561,
544,
527,
509,
534,
472,
490,
451,
435,
375,
377,
353,
359,
331,
358,
299,
286,
293,
252,
239,
267,
234,
215,
173,
192,
185,
173,
194,
153,
145,
148,
153,
125,
118,
112,
115,
95,
83,
99,
69,
80,
66,
66,
56,
58,
48,
44,
41,
39,
38,
35,
35,
24,
18,
15,
12,
4,
6,
4,
3,
2,
5,
0,
1,
0,
3,
0,
0,
0,
0,
0,
0,
1,
0,
1,
1,
2,
1,
0,
0,
0,
0,
0,
0,
0,
0,
0,
1,
0,
0,
0,
0,
0,
0,
0,
0,
0,
0,
0,
0,
0,
0,
0,
0,
0,
0,
0,
0,
0,
0,
0,
0,
0,
0,
0,
0,
0,
0,
1,
0,
0,
0,
0,
0,
0,
0,
0,
0,
0,
0,
0,
0,
0,
0,
0,
0,
0,
0,
0,
0,
0,
0,
0,
0,
0,
0,
0,
0,
0,
0,
0,
0,
0,
0,
0,
0,
0,
0,
0,
0,
0,
0,
0,
0,
0,
0,
0,
0,
0,
0,
0,
0,
0,
0,
0,
0,
0,
0,
0,
0,
0,
0,
0,
0,
0,
0,
0,
0,
0,
0,
0,
0,
0,
0,
0,
0,
0,
0,
0,
0,
0,
0,
0,
0,
0,
0,
0,
0,
0,
0,
0,
#ENDOFDATA   :

File: SPI MM1 Chalcopyrite[4][4].msa
#FORMAT      : EMSA/MAS Spectral Data File
#VERSION     : 1.0
#TITLE       : SPI MM1 Chalcopyrite[4][all]
#DATE        : 11-MAR-2025
#TIME        : 14:31
#OWNER       : Unknown
#NPOINTS     : 4096
#NCOLUMNS    : 1
#XUNITS      : eV
#YUNITS      : counts
#DATATYPE    : Y
#XPERCHAN    : 9.99778
#OFFSET      : 1.69135
#BEAMKV      : 20
#SIGNALTYPE  : EDS
#ELEVANGLE   : 35
#AZIMANGLE   : 0
#LIVETIME    : 239.844
#REALTIME    : 260.399
#PROBECUR    : 1.02809
#TAUWIND     : 0
#TDEADLYR    : 0
#TACTLYR     : 0.045
#TALWIND     : 0.025
#CHOFFSET    : 0.0
#XLABEL      : Energy (eV)
#YLABEL      : Counts
#XPOSITION   : -4.90951
#YPOSITION   : -3.9268
#ZPOSITION   : 30.9284
#EDSDET      : SD
##SPECIMEN   : SPI MM1 Chalcopyrite[4][all]
##D2STDCMP   : Chalcopyrite,(S:34.9407),(Fe:30.4314),(Cu:34.6279),4.2
##DET_HASH   : 12273538-fd48-a23f-0a19-f1e6fa85caef
##CALIB_HASH : 6abaa72c-aa41-8738-0be9-f592914732f3
##WORKING    : 15.0 mm
##DET_NAME   : EDAX All
##DET_MODE   : MediumLE
#SPECTRUM    :
35,
418,
10785,
3293,
13614,
42210,
11762,
28584,
3470,
4021,
4641,
5109,
5567,
5754,
5316,
5931,
67198,
51908,
10945,
3831,
3793,
3784,
3725,
3844,
3647,
3582,
3490,
3410,
3414,
3220,
3169,
3100,
3039,
3501,
3031,
2819,
2673,
2774,
2527,
2591,
2485,
2368,
2339,
2242,
2319,
17513,
50345,
2421,
2006,
2117,
7548,
4619,
1684,
1667,
1590,
1469,
1912,
25014,
16944,
1468,
1252,
1235,
1412,
3448,
4172,
1148,
982,
999,
897,
914,
953,
902,
909,
894,
977,
793,
770,
739,
690,
713,
694,
657,
623,
604,
588,
570,
541,
520,
508,
489,
453,
405,
409,
420,
363,
373,
331,
308,
309,
313,
280,
300,
267,
269,
248,
223,
214,
204,
197,
172,
174,
164,
155,
148,
139,
128,
128,
106,
110,
99,
94,
101,
84,
96,
84,
66,
62,
54,
36,
38,
45,
40,
36,
27,
25,
16,
12,
16,
16,
8,
10,
8,
3,
3,
3,
1,
4,
1,
0,
1,
2,
0,
0,
2,
0,
0,
0,
2,
0,
1,
0,
0,
1,
0,
0,
1,
0,
1,
0,
1,
0,
1,
0,
0,
0,
0,
1,
1,
0,
0,
0,
0,
0,
0,
1,
0,
0,
0,
0,
0,
0,
0,
0,
0,
0,
0,
0,
0,
0,
0,
0,
0,
0,
0,
0,
0,
0,
0,
0,
0,
0,
0,
0,
0,
0,
0,
0,
0,
0,
0,
0,
0,
0,
0,
0,
0,
0,
0,
0,
0,
0,
0,
0,
0,
0,
0,
0,
0,
0,
0,
0,
0,
0,
0,
0,
0,
0,
0,
0,
0,
0,
0,
0,
0,
0,
0,
0,
0,
0,
0,
0,
0,
0,
0,
0,
0,
0,
1,
0,
0,
0,
0,
0,
0,
0,
0,
0,
0,
0,
0,
0,
0,
0,
0,
0,
0,
0,
0,
0,
0,
0,
0,
0,
0,
#ENDOFDATA   :

File: SPI MM1 Chalcopyrite[7][4].msa
#FORMAT      : EMSA/MAS Spectral Data File
#VERSION     : 1.0
#TITLE       : SPI MM1 Chalcopyrite[7][all]
#DATE        : 11-MAR-2025
#TIME        : 14:35
#OWNER       : Unknown
#NPOINTS     : 4096
#NCOLUMNS    : 1
#XUNITS      : eV
#YUNITS      : counts
#DATATYPE    : Y
#XPERCHAN    : 9.99778
#OFFSET      : 1.69135
#BEAMKV      : 20
#SIGNALTYPE  : EDS
#ELEVANGLE   : 35
#AZIMANGLE   : 0
#LIVETIME    : 239.787
#REALTIME    : 260.339
#PROBECUR    : 1.02809
#TAUWIND     : 0
#TDEADLYR    : 0
#TACTLYR     : 0.045
#TALWIND     : 0.025
#CHOFFSET    : 0.0
#XLABEL      : Energy (eV)
#YLABEL      : Counts
#XPOSITION   : -4.86857
#YPOSITION   : -3.8453
#ZPOSITION   : 30.9284
#EDSDET      : SD
##SPECIMEN   : SPI MM1 Chalcopyrite[7][all]
##D2STDCMP   : Chalcopyrite,(S:34.9407),(Fe:30.4314),(Cu:34.6279),4.2
##DET_HASH   : 12273538-fd48-a23f-0a19-f1e6fa85caef
##CALIB_HASH : 6abaa72c-aa41-8738-0be9-f592914732f3
##WORKING    : 15.0 mm
##DET_NAME   : EDAX All
##DET_MODE   : MediumLE
#SPECTRUM    :
21,
461,
10742,
3170,
13273,
42305,
11611,
28780,
3356,
4018,
4695,
5165,
5586,
5772,
5380,
5851,
66468,
52090,
10857,
3712,
3839,
3793,
3790,
3885,
3626,
3544,
3384,
3373,
3430,
3185,
3228,
2978,
3047,
3549,
2886,
2774,
2723,
2632,
2715,
2628,
2393,
2404,
2338,
2211,
2368,
17394,
50418,
2550,
1998,
2127,
7537,
4709,
1698,
1689,
1533,
1555,
1837,
24978,
17030,
1442,
1243,
1290,
1419,
3528,
4265,
1192,
985,
989,
959,
890,
933,
881,
881,
893,
886,
817,
763,
737,
671,
682,
683,
663,
628,
599,
625,
552,
508,
507,
510,
485,
481,
477,
432,
396,
355,
361,
364,
333,
312,
354,
277,
279,
248,
306,
266,
245,
221,
221,
183,
167,
171,
183,
153,
141,
133,
129,
107,
129,
111,
88,
100,
106,
87,
73,
80,
65,
77,
50,
49,
40,
34,
51,
32,
29,
29,
19,
13,
10,
14,
9,
11,
3,
5,
2,
4,
4,
4,
0,
0,
0,
0,
0,
1,
0,
1,
2,
1,
0,
1,
2,
0,
1,
1,
0,
0,
1,
0,
0,
0,
0,
0,
0,
0,
0,
1,
0,
1,
0,
0,
0,
0,
0,
0,
0,
0,
2,
1,
1,
0,
1,
0,
0,
0,
0,
0,
0,
0,
0,
0,
0,
0,
1,
0,
0,
0,
0,
0,
0,
0,
0,
0,
0,
0,
0,
0,
0,
0,
0,
0,
0,
0,
0,
0,
0,
0,
0,
0,
0,
0,
0,
0,
0,
0,
0,
0,
0,
0,
0,
0,
0,
0,
0,
0,
0,
0,
0,
0,
0,
0,
0,
0,
0,
0,
0,
0,
0,
0,
0,
0,
0,
0,
0,
0,
0,
0,
0,
0,
0,
0,
0,
0,
0,
0,
0,
0,
0,
0,
0,
0,
0,
0,
0,
0,
0,
0,
0,
0,
0,
0,
0,
0,
0,
0,
0,
#ENDOFDATA   :

File: SPI MM1 Chlorite[2][4].msa
#FORMAT      : EMSA/MAS Spectral Data File
#VERSION     : 1.0
#TITLE       : SPI MM1dup Chlorite[2][all]
#DATE        : 12-MAR-2025
#TIME        : 14:20
#OWNER       : Unknown
#NPOINTS     : 4096
#NCOLUMNS    : 1
#XUNITS      : eV
#YUNITS      : counts
#DATATYPE    : Y
#XPERCHAN    : 9.99778
#OFFSET      : 1.69135
#BEAMKV      : 20
#SIGNALTYPE  : EDS
#ELEVANGLE   : 35
#AZIMANGLE   : 0
#LIVETIME    : 239.79
#REALTIME    : 254.634
#PROBECUR    : 1.02867
#TAUWIND     : 0
#TDEADLYR    : 0
#TACTLYR     : 0.045
#TALWIND     : 0.025
#CHOFFSET    : 0.0
#XLABEL      : Energy (eV)
#YLABEL      : Counts
#XPOSITION   : 6.1863
#YPOSITION   : -0.3201
#ZPOSITION   : 31.03608
#EDSDET      : SD
##SPECIMEN   : SPI MM1dup Chlorite[2][all]
##DET_HASH   : 12273538-fd48-a23f-0a19-f1e6fa85caef
##CALIB_HASH : 6abaa72c-aa41-8738-0be9-f592914732f3
##WORKING    : 15.0 mm
##DET_NAME   : EDAX All
##DET_MODE   : MediumLE
#SPECTRUM    :
22,
198,
8799,
7379,
81033,
4250,
2704,
3062,
4696,
150669,
6149,
22360,
28407,
14434,
2213,
2192,
2463,
2156,
2266,
2149,
2138,
2224,
1967,
1969,
1828,
1785,
1704,
1639,
1575,
1500,
1514,
1399,
1400,
1345,
1262,
1303,
1185,
1159,
1965,
3141,
999,
1038,
1224,
1086,
908,
1943,
4359,
830,
713,
761,
1089,
941,
668,
832,
739,
611,
582,
553,
540,
551,
496,
519,
493,
437,
436,
442,
408,
394,
401,
361,
356,
357,
300,
338,
323,
262,
273,
271,
235,
264,
245,
230,
210,
233,
211,
211,
194,
170,
181,
171,
166,
155,
146,
147,
135,
115,
108,
126,
93,
103,
89,
84,
86,
78,
88,
63,
70,
67,
71,
54,
54,
52,
46,
33,
32,
40,
42,
50,
28,
27,
22,
28,
14,
19,
24,
29,
14,
13,
23,
12,
12,
15,
10,
5,
5,
6,
3,
4,
5,
0,
1,
2,
2,
0,
0,
0,
0,
0,
1,
0,
0,
0,
0,
0,
0,
0,
0,
0,
0,
0,
0,
0,
0,
0,
0,
0,
0,
0,
0,
0,
0,
0,
0,
0,
0,
0,
0,
0,
0,
0,
0,
0,
0,
0,
0,
0,
0,
0,
0,
0,
0,
0,
0,
0,
0,
0,
1,
0,
0,
0,
0,
0,
0,
0,
0,
0,
0,
0,
0,
0,
0,
0,
0,
0,
0,
0,
0,
0,
0,
0,
0,
0,
0,
0,
0,
0,
0,
0,
0,
0,
0,
0,
0,
0,
0,
0,
0,
0,
0,
0,
0,
0,
0,
0,
0,
0,
0,
0,
0,
0,
0,
0,
0,
0,
0,
0,
0,
0,
0,
0,
0,
0,
0,
0,
0,
0,
0,
0,
0,
0,
0,
0,
0,
0,
0,
0,
0,
0,
0,
0,
0,
0,
0,
0,
0,
0,
0,
0,
0,
0,
0,
0,
0,
0,
#ENDOFDATA   :

File: SPI MM1 Chlorite[3][4].msa
#FORMAT      : EMSA/MAS Spectral Data File
#VERSION     : 1.0
#TITLE       : SPI MM1dup Chlorite[3][all]
#DATE        : 12-MAR-2025
#TIME        : 14:21
#OWNER       : Unknown
#NPOINTS     : 4096
#NCOLUMNS    : 1
#XUNITS      : eV
#YUNITS      : counts
#DATATYPE    : Y
#XPERCHAN    : 9.99778
#OFFSET      : 1.69135
#BEAMKV      : 20
#SIGNALTYPE  : EDS
#ELEVANGLE   : 35
#AZIMANGLE   : 0
#LIVETIME    : 239.872
#REALTIME    : 254.755
#PROBECUR    : 1.02867
#TAUWIND     : 0
#TDEADLYR    : 0
#TACTLYR     : 0.045
#TALWIND     : 0.025
#CHOFFSET    : 0.0
#XLABEL      : Energy (eV)
#YLABEL      : Counts
#XPOSITION   : 6.23627
#YPOSITION   : -0.24515
#ZPOSITION   : 31.03608
#EDSDET      : SD
##SPECIMEN   : SPI MM1dup Chlorite[3][all]
##DET_HASH   : 12273538-fd48-a23f-0a19-f1e6fa85caef
##CALIB_HASH : 6abaa72c-aa41-8738-0be9-f592914732f3
##WORKING    : 15.0 mm
##DET_NAME   : EDAX All
##DET_MODE   : MediumLE
#SPECTRUM    :
27,
200,
8715,
7480,
81360,
4249,
2765,
3196,
4562,
151624,
6406,
22320,
28359,
14332,
2237,
2198,
2494,
2188,
2386,
2145,
2135,
2187,
1909,
1983,
1852,
1870,
1781,
1569,
1580,
1514,
1425,
1425,
1419,
1334,
1335,
1285,
1228,
1142,
1836,
3191,
1020,
945,
1224,
1103,
868,
1902,
4278,
848,
751,
810,
1093,
945,
648,
807,
733,
601,
584,
572,
570,
541,
472,
470,
447,
427,
462,
447,
418,
398,
380,
359,
366,
356,
301,
292,
323,
314,
296,
267,
283,
257,
247,
270,
223,
215,
179,
209,
192,
201,
177,
169,
148,
168,
151,
134,
128,
119,
128,
122,
109,
89,
114,
92,
85,
67,
82,
66,
78,
66,
60,
54,
45,
40,
35,
47,
48,
30,
31,
43,
33,
29,
23,
23,
19,
16,
16,
21,
18,
9,
12,
12,
14,
12,
9,
5,
3,
11,
3,
9,
4,
3,
1,
2,
0,
0,
0,
0,
0,
0,
0,
0,
0,
0,
0,
0,
1,
0,
0,
0,
0,
0,
0,
0,
0,
0,
0,
0,
0,
0,
0,
0,
0,
0,
0,
0,
0,
0,
0,
0,
0,
0,
0,
0,
0,
0,
0,
0,
0,
0,
0,
0,
0,
0,
0,
0,
0,
0,
0,
0,
0,
0,
0,
0,
0,
0,
0,
0,
0,
0,
0,
0,
0,
0,
0,
0,
0,
0,
0,
0,
0,
0,
0,
0,
0,
0,
0,
0,
0,
0,
0,
0,
0,
0,
0,
0,
0,
0,
0,
0,
0,
0,
0,
0,
0,
0,
0,
0,
0,
0,
0,
0,
0,
0,
0,
0,
0,
0,
0,
0,
0,
0,
0,
0,
0,
0,
0,
0,
0,
0,
0,
0,
0,
0,
0,
0,
0,
0,
0,
0,
0,
0,
0,
0,
0,
0,
0,
0,
0,
0,
0,
0,
0,
0,
0,
0,
#ENDOFDATA   :

File: SPI MM1 Chlorite[5][4].msa
#FORMAT      : EMSA/MAS Spectral Data File
#VERSION     : 1.0
#TITLE       : SPI MM1dup Chlorite[5][all]
#DATE        : 12-MAR-2025
#TIME        : 14:23
#OWNER       : Unknown
#NPOINTS     : 4096
#NCOLUMNS    : 1
#XUNITS      : eV
#YUNITS      : counts
#DATATYPE    : Y
#XPERCHAN    : 9.99778
#OFFSET      : 1.69135
#BEAMKV      : 20
#SIGNALTYPE  : EDS
#ELEVANGLE   : 35
#AZIMANGLE   : 0
#LIVETIME    : 239.7977
#REALTIME    : 254.63
#PROBECUR    : 1.02867
#TAUWIND     : 0
#TDEADLYR    : 0
#TACTLYR     : 0.045
#TALWIND     : 0.025
#CHOFFSET    : 0.0
#XLABEL      : Energy (eV)
#YLABEL      : Counts
#XPOSITION   : 6.37367
#YPOSITION   : -0.13273
#ZPOSITION   : 31.03608
#EDSDET      : SD
##SPECIMEN   : SPI MM1dup Chlorite[5][all]
##DET_HASH   : 12273538-fd48-a23f-0a19-f1e6fa85caef
##CALIB_HASH : 6abaa72c-aa41-8738-0be9-f592914732f3
##WORKING    : 15.0 mm
##DET_NAME   : EDAX All
##DET_MODE   : MediumLE
#SPECTRUM    :
24,
186,
8570,
7454,
80828,
4336,
2787,
3196,
4590,
151155,
6416,
22281,
28357,
14263,
2285,
2150,
2373,
2225,
2275,
2209,
2085,
2100,
2087,
2000,
1854,
1796,
1772,
1682,
1507,
1557,
1416,
1430,
1396,
1351,
1296,
1243,
1186,
1148,
1809,
3292,
981,
997,
1247,
1118,
887,
1924,
4195,
803,
794,
777,
1173,
901,
669,
850,
730,
578,
577,
596,
519,
568,
478,
479,
480,
463,
450,
414,
410,
368,
367,
371,
346,
359,
361,
319,
330,
289,
307,
284,
254,
257,
263,
203,
249,
219,
224,
190,
201,
184,
174,
178,
154,
139,
118,
142,
137,
135,
115,
124,
113,
106,
91,
86,
96,
79,
68,
61,
73,
78,
47,
62,
46,
55,
52,
47,
47,
37,
41,
37,
30,
28,
29,
26,
27,
19,
25,
20,
16,
17,
21,
17,
14,
7,
10,
9,
6,
4,
6,
3,
2,
4,
3,
2,
2,
1,
0,
0,
0,
0,
0,
0,
0,
0,
0,
0,
0,
0,
0,
0,
0,
0,
0,
0,
0,
0,
0,
0,
0,
0,
0,
0,
0,
0,
0,
0,
0,
0,
0,
0,
0,
0,
0,
0,
0,
0,
0,
0,
0,
0,
0,
0,
0,
0,
0,
0,
0,
0,
0,
0,
0,
0,
0,
0,
0,
0,
0,
0,
0,
0,
0,
0,
0,
0,
0,
0,
0,
0,
0,
0,
0,
0,
0,
0,
0,
0,
0,
0,
0,
0,
0,
0,
0,
0,
0,
0,
0,
0,
0,
0,
0,
0,
0,
0,
0,
0,
0,
0,
0,
0,
0,
0,
0,
0,
0,
0,
0,
0,
0,
0,
0,
0,
0,
0,
0,
0,
0,
0,
0,
0,
0,
0,
0,
0,
0,
0,
0,
0,
0,
0,
0,
0,
0,
0,
0,
0,
0,
0,
0,
0,
0,
0,
0,
0,
0,
0,
#ENDOFDATA   :

File: SPI MM1 Chlorite[7][4].msa
#FORMAT      : EMSA/MAS Spectral Data File
#VERSION     : 1.0
#TITLE       : SPI MM1dup Chlorite[7][all]
#DATE        : 12-MAR-2025
#TIME        : 14:26
#OWNER       : Unknown
#NPOINTS     : 4096
#NCOLUMNS    : 1
#XUNITS      : eV
#YUNITS      : counts
#DATATYPE    : Y
#XPERCHAN    : 9.99778
#OFFSET      : 1.69135
#BEAMKV      : 20
#SIGNALTYPE  : EDS
#ELEVANGLE   : 35
#AZIMANGLE   : 0
#LIVETIME    : 239.7522
#REALTIME    : 254.576
#PROBECUR    : 1.02867
#TAUWIND     : 0
#TDEADLYR    : 0
#TACTLYR     : 0.045
#TALWIND     : 0.025
#CHOFFSET    : 0.0
#XLABEL      : Energy (eV)
#YLABEL      : Counts
#XPOSITION   : 6.59435
#YPOSITION   : 0.08379
#ZPOSITION   : 31.03608
#EDSDET      : SD
##SPECIMEN   : SPI MM1dup Chlorite[7][all]
##DET_HASH   : 12273538-fd48-a23f-0a19-f1e6fa85caef
##CALIB_HASH : 6abaa72c-aa41-8738-0be9-f592914732f3
##WORKING    : 15.0 mm
##DET_NAME   : EDAX All
##DET_MODE   : MediumLE
#SPECTRUM    :
21,
213,
8723,
7523,
80941,
4135,
2696,
3169,
4707,
152413,
6430,
22121,
28374,
14480,
2164,
2161,
2514,
2240,
2351,
2187,
2161,
2166,
1971,
1992,
1798,
1760,
1720,
1675,
1587,
1411,
1449,
1481,
1381,
1331,
1280,
1230,
1190,
1180,
1925,
3224,
1007,
1029,
1260,
1139,
881,
1900,
4025,
851,
800,
742,
1134,
892,
655,
872,
720,
604,
592,
624,
566,
614,
525,
498,
454,
443,
425,
416,
412,
379,
369,
378,
353,
336,
346,
307,
320,
294,
277,
258,
274,
250,
245,
217,
225,
210,
208,
184,
198,
191,
186,
176,
150,
152,
146,
147,
134,
120,
109,
98,
85,
107,
109,
93,
76,
85,
86,
79,
56,
67,
53,
52,
67,
49,
41,
51,
46,
45,
42,
38,
37,
37,
24,
28,
26,
27,
21,
17,
18,
16,
22,
10,
19,
8,
7,
11,
7,
5,
4,
4,
5,
2,
2,
1,
0,
0,
0,
1,
0,
0,
0,
0,
0,
0,
0,
0,
0,
0,
0,
0,
0,
0,
0,
0,
0,
0,
0,
0,
0,
0,
0,
0,
0,
0,
0,
0,
0,
0,
0,
0,
1,
0,
0,
0,
0,
0,
0,
0,
0,
0,
0,
0,
0,
0,
0,
0,
0,
0,
0,
0,
0,
0,
0,
0,
0,
0,
0,
0,
0,
0,
0,
0,
0,
0,
0,
0,
0,
0,
0,
0,
0,
0,
0,
0,
0,
0,
0,
0,
0,
0,
0,
0,
0,
0,
0,
0,
0,
0,
0,
0,
0,
0,
0,
0,
1,
0,
0,
0,
0,
0,
0,
0,
0,
0,
0,
0,
0,
0,
0,
0,
0,
0,
0,
0,
0,
0,
0,
0,
0,
0,
0,
0,
0,
0,
0,
0,
0,
0,
0,
0,
0,
0,
0,
0,
0,
0,
0,
0,
0,
0,
0,
0,
0,
0,
0,
0,
#ENDOFDATA   :

File: SPI MM1 Chromite[2][4].msa
#FORMAT      : EMSA/MAS Spectral Data File
#VERSION     : 1.0
#TITLE       : SPI MM1dup Chromite[2][all]
#DATE        : 12-MAR-2025
#TIME        : 14:11
#OWNER       : Unknown
#NPOINTS     : 4096
#NCOLUMNS    : 1
#XUNITS      : eV
#YUNITS      : counts
#DATATYPE    : Y
#XPERCHAN    : 9.99778
#OFFSET      : 1.69135
#BEAMKV      : 20
#SIGNALTYPE  : EDS
#ELEVANGLE   : 35
#AZIMANGLE   : 0
#LIVETIME    : 239.169
#REALTIME    : 254.957
#PROBECUR    : 1.02867
#TAUWIND     : 0
#TDEADLYR    : 0
#TACTLYR     : 0.045
#TALWIND     : 0.025
#CHOFFSET    : 0.0
#XLABEL      : Energy (eV)
#YLABEL      : Counts
#XPOSITION   : 4.22056
#YPOSITION   : -0.15504
#ZPOSITION   : 31.03609
#EDSDET      : SD
##SPECIMEN   : SPI MM1dup Chromite[2][all]
##DET_HASH   : 12273538-fd48-a23f-0a19-f1e6fa85caef
##CALIB_HASH : 6abaa72c-aa41-8738-0be9-f592914732f3
##WORKING    : 15.0 mm
##DET_NAME   : EDAX All
##DET_MODE   : MediumLE
#SPECTRUM    :
19,
234,
12445,
10090,
78575,
8241,
2337,
2840,
3597,
55112,
7185,
24744,
4766,
4223,
3250,
3174,
3222,
3276,
3176,
3435,
2967,
2993,
2858,
2869,
2705,
2725,
3006,
2424,
2401,
2366,
2279,
2161,
2398,
2178,
2075,
2121,
1858,
2046,
20594,
54573,
1886,
1812,
7659,
5545,
1357,
5596,
15499,
1395,
1177,
1251,
2847,
1829,
926,
1077,
1013,
945,
833,
784,
852,
802,
776,
739,
733,
689,
708,
615,
646,
569,
652,
583,
577,
557,
556,
538,
453,
474,
467,
472,
469,
419,
404,
399,
356,
339,
349,
337,
311,
284,
297,
280,
273,
240,
261,
233,
227,
205,
200,
181,
185,
166,
165,
167,
134,
149,
151,
118,
114,
114,
87,
92,
88,
98,
88,
85,
56,
68,
61,
53,
54,
43,
50,
51,
47,
45,
41,
37,
27,
31,
29,
19,
24,
20,
18,
16,
11,
12,
10,
3,
7,
3,
7,
2,
1,
1,
0,
1,
0,
1,
1,
1,
0,
0,
0,
0,
0,
0,
1,
0,
0,
0,
0,
0,
0,
0,
0,
0,
0,
0,
0,
0,
0,
0,
0,
0,
0,
0,
0,
0,
0,
0,
0,
0,
0,
0,
0,
1,
0,
0,
0,
0,
0,
1,
0,
0,
0,
0,
0,
0,
0,
0,
0,
0,
0,
0,
0,
0,
0,
0,
0,
0,
0,
0,
0,
0,
0,
0,
0,
0,
0,
0,
0,
0,
0,
0,
0,
0,
0,
0,
0,
0,
0,
0,
0,
0,
0,
0,
0,
0,
0,
0,
0,
0,
0,
0,
0,
0,
0,
0,
0,
0,
0,
0,
0,
0,
0,
0,
0,
0,
0,
0,
0,
0,
0,
0,
0,
0,
0,
0,
0,
0,
0,
0,
0,
0,
0,
0,
0,
0,
0,
0,
0,
0,
0,
0,
0,
0,
0,
0,
0,
0,
0,
0,
0,
0,
#ENDOFDATA   :

File: SPI MM1 Chromite[4][4].msa
#FORMAT      : EMSA/MAS Spectral Data File
#VERSION     : 1.0
#TITLE       : SPI MM1dup Chromite[4][all]
#DATE        : 12-MAR-2025
#TIME        : 14:13
#OWNER       : Unknown
#NPOINTS     : 4096
#NCOLUMNS    : 1
#XUNITS      : eV
#YUNITS      : counts
#DATATYPE    : Y
#XPERCHAN    : 9.99778
#OFFSET      : 1.69135
#BEAMKV      : 20
#SIGNALTYPE  : EDS
#ELEVANGLE   : 35
#AZIMANGLE   : 0
#LIVETIME    : 236.7548
#REALTIME    : 250.279
#PROBECUR    : 1.02867
#TAUWIND     : 0
#TDEADLYR    : 0
#TACTLYR     : 0.045
#TALWIND     : 0.025
#CHOFFSET    : 0.0
#XLABEL      : Energy (eV)
#YLABEL      : Counts
#XPOSITION   : 4.16182
#YPOSITION   : -0.27474
#ZPOSITION   : 31.03608
#EDSDET      : SD
##SPECIMEN   : SPI MM1dup Chromite[4][all]
##DET_HASH   : 12273538-fd48-a23f-0a19-f1e6fa85caef
##CALIB_HASH : 6abaa72c-aa41-8738-0be9-f592914732f3
##WORKING    : 15.0 mm
##DET_NAME   : EDAX All
##DET_MODE   : MediumLE
#SPECTRUM    :
32,
215,
8818,
8630,
63376,
9120,
2722,
2202,
2549,
30815,
4219,
11228,
4630,
3709,
2693,
2672,
2775,
2743,
2749,
2932,
2788,
2610,
2564,
2482,
2460,
2427,
2676,
2340,
2182,
2161,
2161,
2033,
2230,
2069,
1932,
2083,
1932,
2023,
21865,
57327,
1902,
1761,
8350,
5798,
1221,
6427,
18387,
1353,
1161,
1151,
3168,
1971,
885,
1250,
1066,
853,
845,
807,
810,
856,
721,
763,
690,
646,
702,
623,
590,
617,
598,
594,
544,
573,
542,
526,
467,
515,
467,
462,
444,
419,
383,
399,
382,
381,
384,
356,
358,
335,
316,
286,
302,
264,
243,
233,
214,
207,
200,
194,
197,
166,
164,
160,
167,
151,
124,
155,
117,
110,
105,
103,
120,
101,
90,
92,
75,
76,
67,
74,
63,
67,
46,
51,
44,
43,
32,
36,
39,
29,
25,
21,
28,
20,
19,
17,
13,
11,
13,
7,
10,
5,
3,
2,
1,
1,
1,
1,
0,
2,
0,
1,
0,
0,
0,
0,
0,
0,
0,
1,
0,
0,
0,
1,
0,
0,
0,
0,
0,
0,
0,
0,
0,
0,
0,
0,
0,
0,
0,
0,
0,
0,
0,
0,
0,
0,
0,
0,
0,
0,
0,
0,
0,
0,
0,
0,
0,
0,
0,
0,
0,
0,
0,
0,
0,
0,
0,
0,
0,
0,
0,
0,
0,
0,
0,
0,
0,
0,
0,
0,
0,
0,
0,
0,
0,
0,
0,
0,
0,
0,
0,
0,
0,
0,
0,
0,
0,
0,
0,
0,
0,
0,
0,
0,
0,
0,
0,
0,
0,
0,
0,
0,
0,
0,
0,
0,
0,
0,
0,
0,
0,
0,
0,
0,
0,
0,
0,
0,
0,
0,
0,
0,
0,
0,
0,
0,
0,
0,
0,
0,
0,
0,
0,
0,
0,
0,
0,
0,
0,
0,
0,
0,
0,
0,
0,
0,
#ENDOFDATA   :

File: SPI MM1 Chromite[5][4].msa
#FORMAT      : EMSA/MAS Spectral Data File
#VERSION     : 1.0
#TITLE       : SPI MM1dup Chromite[5][all]
#DATE        : 12-MAR-2025
#TIME        : 14:14
#OWNER       : Unknown
#NPOINTS     : 4096
#NCOLUMNS    : 1
#XUNITS      : eV
#YUNITS      : counts
#DATATYPE    : Y
#XPERCHAN    : 9.99778
#OFFSET      : 1.69135
#BEAMKV      : 20
#SIGNALTYPE  : EDS
#ELEVANGLE   : 35
#AZIMANGLE   : 0
#LIVETIME    : 239.786
#REALTIME    : 256.168
#PROBECUR    : 1.02867
#TAUWIND     : 0
#TDEADLYR    : 0
#TACTLYR     : 0.045
#TALWIND     : 0.025
#CHOFFSET    : 0.0
#XLABEL      : Energy (eV)
#YLABEL      : Counts
#XPOSITION   : 4.21453
#YPOSITION   : -0.23224
#ZPOSITION   : 31.03608
#EDSDET      : SD
##SPECIMEN   : SPI MM1dup Chromite[5][all]
##DET_HASH   : 12273538-fd48-a23f-0a19-f1e6fa85caef
##CALIB_HASH : 6abaa72c-aa41-8738-0be9-f592914732f3
##WORKING    : 15.0 mm
##DET_NAME   : EDAX All
##DET_MODE   : MediumLE
#SPECTRUM    :
38,
222,
9661,
10701,
83527,
7356,
2542,
2979,
3697,
57709,
7962,
27648,
3578,
3749,
3487,
3305,
3448,
3413,
3320,
3237,
3214,
2994,
3046,
3006,
2885,
2701,
2990,
2525,
2525,
2319,
2381,
2198,
2414,
2167,
2099,
2124,
1999,
2086,
22180,
58019,
1931,
1755,
7760,
5851,
1332,
5512,
14944,
1327,
1242,
1377,
2690,
1858,
1022,
1156,
1007,
920,
898,
882,
806,
847,
786,
772,
765,
697,
691,
633,
662,
569,
610,
562,
565,
547,
522,
528,
497,
514,
469,
478,
457,
400,
401,
410,
382,
361,
365,
312,
298,
323,
293,
278,
250,
234,
258,
227,
220,
226,
207,
182,
196,
184,
160,
155,
132,
134,
130,
132,
106,
117,
120,
131,
102,
77,
88,
90,
76,
63,
74,
66,
44,
48,
58,
70,
50,
42,
37,
34,
35,
35,
34,
22,
24,
23,
12,
9,
14,
18,
16,
6,
4,
4,
3,
3,
3,
1,
1,
0,
1,
1,
0,
0,
0,
0,
0,
0,
0,
0,
1,
0,
0,
0,
0,
0,
0,
0,
0,
1,
0,
0,
0,
1,
0,
0,
0,
0,
0,
0,
0,
0,
0,
0,
0,
0,
0,
0,
0,
0,
0,
0,
0,
0,
0,
0,
0,
0,
0,
0,
0,
0,
0,
0,
0,
0,
0,
0,
0,
0,
0,
0,
0,
0,
0,
0,
0,
0,
0,
0,
0,
0,
0,
0,
0,
0,
0,
0,
0,
0,
0,
0,
0,
0,
0,
0,
0,
0,
0,
0,
0,
0,
0,
0,
0,
0,
0,
0,
0,
0,
0,
0,
0,
0,
0,
0,
0,
0,
0,
0,
0,
0,
0,
0,
0,
0,
0,
0,
0,
0,
0,
0,
0,
0,
0,
0,
0,
0,
0,
0,
0,
0,
0,
0,
0,
0,
0,
0,
0,
0,
0,
0,
0,
0,
0,
0,
0,
0,
#ENDOFDATA   :

File: SPI MM1 Chromite[6][4].msa
#FORMAT      : EMSA/MAS Spectral Data File
#VERSION     : 1.0
#TITLE       : SPI MM1dup Chromite[6][all]
#DATE        : 12-MAR-2025
#TIME        : 14:15
#OWNER       : Unknown
#NPOINTS     : 4096
#NCOLUMNS    : 1
#XUNITS      : eV
#YUNITS      : counts
#DATATYPE    : Y
#XPERCHAN    : 9.99778
#OFFSET      : 1.69135
#BEAMKV      : 20
#SIGNALTYPE  : EDS
#ELEVANGLE   : 35
#AZIMANGLE   : 0
#LIVETIME    : 239.606
#REALTIME    : 255.97
#PROBECUR    : 1.02867
#TAUWIND     : 0
#TDEADLYR    : 0
#TACTLYR     : 0.045
#TALWIND     : 0.025
#CHOFFSET    : 0.0
#XLABEL      : Energy (eV)
#YLABEL      : Counts
#XPOSITION   : 4.20765
#YPOSITION   : -0.19539
#ZPOSITION   : 31.03608
#EDSDET      : SD
##SPECIMEN   : SPI MM1dup Chromite[6][all]
##DET_HASH   : 12273538-fd48-a23f-0a19-f1e6fa85caef
##CALIB_HASH : 6abaa72c-aa41-8738-0be9-f592914732f3
##WORKING    : 15.0 mm
##DET_NAME   : EDAX All
##DET_MODE   : MediumLE
#SPECTRUM    :
12,
247,
9646,
10538,
83219,
7392,
2410,
2857,
3712,
58112,
7858,
27274,
3621,
3686,
3471,
3351,
3362,
3315,
3375,
3470,
3188,
3135,
3047,
2911,
2767,
2806,
2963,
2507,
2515,
2329,
2352,
2239,
2362,
2162,
2016,
2134,
2067,
2081,
21964,
58168,
1969,
1761,
7683,
5887,
1342,
5514,
14958,
1378,
1206,
1293,
2759,
1805,
979,
1170,
1044,
910,
890,
901,
830,
842,
790,
797,
757,
702,
672,
679,
651,
649,
649,
600,
573,
547,
550,
552,
511,
530,
484,
495,
465,
406,
397,
378,
382,
371,
350,
340,
344,
282,
304,
282,
248,
257,
234,
242,
234,
252,
184,
188,
155,
170,
192,
162,
156,
143,
124,
127,
104,
114,
117,
111,
98,
92,
100,
90,
70,
66,
63,
56,
69,
59,
57,
44,
41,
40,
31,
23,
29,
42,
25,
24,
28,
29,
17,
9,
10,
10,
13,
8,
9,
6,
6,
3,
0,
1,
1,
0,
1,
1,
1,
0,
0,
0,
0,
0,
0,
0,
0,
0,
0,
0,
0,
0,
0,
0,
0,
0,
0,
0,
1,
0,
0,
0,
0,
0,
0,
0,
0,
0,
0,
0,
0,
0,
0,
0,
0,
0,
0,
0,
0,
0,
0,
0,
0,
0,
0,
0,
0,
0,
0,
0,
0,
0,
0,
0,
0,
0,
0,
0,
0,
0,
0,
0,
0,
0,
0,
0,
0,
0,
0,
0,
0,
0,
0,
0,
0,
0,
0,
0,
0,
0,
0,
0,
0,
0,
0,
0,
0,
0,
0,
0,
0,
0,
0,
0,
0,
0,
0,
0,
0,
0,
0,
0,
0,
0,
0,
0,
0,
0,
0,
0,
0,
0,
0,
0,
0,
0,
0,
0,
0,
0,
0,
0,
0,
0,
0,
0,
0,
0,
0,
0,
0,
0,
0,
0,
0,
0,
0,
0,
0,
0,
0,
0,
0,
0,
#ENDOFDATA   :