Folder: spex_quant/N132962/Quantification/MMM1 (part 3)

File: SPI MM1 Benitoite[6][4].msa
#FORMAT      : EMSA/MAS Spectral Data File
#VERSION     : 1.0
#TITLE       : SPI MM1 Benitoite[6][all]
#DATE        : 11-MAR-2025
#TIME        : 13:23
#OWNER       : Unknown
#NPOINTS     : 4096
#NCOLUMNS    : 1
#XUNITS      : eV
#YUNITS      : counts
#DATATYPE    : Y
#XPERCHAN    : 9.99778
#OFFSET      : 1.69135
#BEAMKV      : 20
#SIGNALTYPE  : EDS
#ELEVANGLE   : 35
#AZIMANGLE   : 0
#LIVETIME    : 239.898
#REALTIME    : 256.805
#PROBECUR    : 1.02853
#TAUWIND     : 0
#TDEADLYR    : 0
#TACTLYR     : 0.045
#TALWIND     : 0.025
#CHOFFSET    : 0.0
#XLABEL      : Energy (eV)
#YLABEL      : Counts
#XPOSITION   : -3.34096
#YPOSITION   : -4.90603
#ZPOSITION   : 30.9284
#EDSDET      : SD
##SPECIMEN   : SPI MM1 Benitoite[6][all]
##D2STDCMP   : Benitoite,(O:34.828),(Si:20.3791),(Ti:11.5776),(Ba:33.2153)
##DET_HASH   : 12273538-fd48-a23f-0a19-f1e6fa85caef
##CALIB_HASH : 6abaa72c-aa41-8738-0be9-f592914732f3
##WORKING    : 15.0 mm
##DET_NAME   : EDAX All
##DET_MODE   : MediumLE
#SPECTRUM    :
15,
262,
11403,
12129,
44416,
3697,
3913,
4899,
3845,
4147,
4571,
5441,
46352,
23109,
4026,
4072,
4371,
3974,
4012,
4212,
4146,
3864,
4036,
3739,
3698,
3774,
3459,
3334,
4613,
3540,
3139,
6425,
80859,
7303,
11410,
19373,
4594,
8945,
2440,
3373,
3339,
2639,
2444,
1994,
1832,
1875,
1872,
1725,
1596,
1584,
1557,
1530,
1500,
1468,
1502,
1361,
1327,
1272,
1257,
1275,
1211,
1160,
1106,
1169,
1109,
1070,
963,
1007,
976,
927,
904,
886,
868,
867,
809,
767,
750,
777,
684,
680,
661,
577,
598,
550,
605,
555,
498,
535,
479,
479,
464,
432,
411,
394,
382,
329,
335,
345,
319,
292,
277,
273,
252,
245,
218,
226,
221,
214,
215,
167,
173,
148,
163,
151,
142,
124,
123,
124,
98,
100,
83,
98,
68,
77,
76,
81,
40,
42,
51,
40,
39,
39,
33,
25,
29,
24,
21,
13,
16,
10,
8,
6,
2,
0,
1,
0,
0,
0,
0,
1,
0,
1,
2,
0,
1,
1,
0,
1,
2,
2,
0,
2,
0,
0,
0,
0,
0,
1,
0,
0,
0,
0,
0,
0,
1,
0,
0,
0,
1,
0,
0,
0,
0,
0,
0,
0,
0,
0,
0,
0,
0,
0,
0,
1,
0,
0,
0,
0,
0,
0,
0,
0,
0,
0,
0,
0,
0,
0,
0,
0,
0,
0,
0,
0,
0,
0,
0,
0,
0,
0,
0,
0,
0,
0,
0,
0,
0,
0,
0,
0,
0,
0,
0,
0,
0,
0,
0,
0,
0,
0,
0,
0,
0,
0,
0,
0,
0,
0,
0,
0,
0,
0,
0,
0,
0,
0,
0,
0,
0,
0,
0,
0,
0,
0,
0,
0,
0,
0,
0,
0,
0,
0,
0,
0,
0,
0,
0,
0,
0,
0,
0,
0,
0,
0,
0,
0,
0,
0,
0,
0,
0,
0,
0,
0,
#ENDOFDATA   :

File: SPI MM1 Bustamite[2][4].msa
#FORMAT      : EMSA/MAS Spectral Data File
#VERSION     : 1.0
#TITLE       : SPI MM1 Bustamite[2][all]
#DATE        : 11-MAR-2025
#TIME        : 14:05
#OWNER       : Unknown
#NPOINTS     : 4096
#NCOLUMNS    : 1
#XUNITS      : eV
#YUNITS      : counts
#DATATYPE    : Y
#XPERCHAN    : 9.99778
#OFFSET      : 1.69135
#BEAMKV      : 20
#SIGNALTYPE  : EDS
#ELEVANGLE   : 35
#AZIMANGLE   : 0
#LIVETIME    : 239.863
#REALTIME    : 255.724
#PROBECUR    : 1.02902
#TAUWIND     : 0
#TDEADLYR    : 0
#TACTLYR     : 0.045
#TALWIND     : 0.025
#CHOFFSET    : 0.0
#XLABEL      : Energy (eV)
#YLABEL      : Counts
#XPOSITION   : 2.6935
#YPOSITION   : -2.67485
#ZPOSITION   : 30.9284
#EDSDET      : SD
##SPECIMEN   : SPI MM1 Bustamite[2][all]
##D2STDCMP   : Bustamite,(O:38.8357),(Si:22.7243),(Ca:16.2141),(Mn:22.2259),6.0
##DET_HASH   : 12273538-fd48-a23f-0a19-f1e6fa85caef
##CALIB_HASH : 6abaa72c-aa41-8738-0be9-f592914732f3
##WORKING    : 15.0 mm
##DET_NAME   : EDAX All
##DET_MODE   : MediumLE
#SPECTRUM    :
18,
204,
11051,
4830,
41675,
6995,
2415,
3124,
3305,
4686,
4424,
5192,
56636,
27296,
3879,
3170,
3475,
3166,
3215,
3118,
3060,
3004,
2954,
2922,
2749,
3239,
36688,
13151,
3824,
7460,
2232,
1989,
2007,
1941,
1825,
1772,
1837,
1650,
1650,
1763,
1575,
2547,
39836,
4629,
1400,
4196,
14147,
2585,
1116,
1112,
2019,
1593,
976,
973,
924,
966,
850,
828,
837,
824,
741,
810,
792,
706,
676,
660,
625,
585,
635,
611,
546,
519,
490,
465,
480,
484,
471,
485,
417,
388,
409,
382,
358,
393,
346,
313,
318,
322,
291,
283,
246,
249,
240,
235,
219,
209,
194,
190,
179,
162,
171,
153,
125,
141,
137,
134,
125,
106,
99,
101,
91,
87,
71,
86,
62,
70,
69,
66,
65,
45,
59,
47,
46,
28,
35,
34,
21,
29,
19,
21,
17,
14,
16,
14,
6,
10,
12,
5,
10,
7,
6,
3,
1,
4,
1,
1,
1,
0,
0,
0,
1,
0,
0,
0,
0,
1,
1,
0,
0,
0,
1,
0,
0,
0,
0,
0,
0,
0,
0,
0,
0,
0,
0,
0,
0,
1,
0,
0,
0,
0,
0,
0,
0,
0,
0,
0,
0,
0,
0,
0,
0,
0,
0,
0,
0,
0,
0,
0,
0,
0,
0,
0,
0,
0,
0,
0,
0,
0,
0,
0,
0,
0,
0,
0,
0,
0,
0,
0,
0,
0,
0,
0,
0,
0,
0,
0,
0,
0,
0,
0,
0,
0,
0,
0,
0,
0,
0,
0,
0,
0,
0,
0,
0,
0,
0,
0,
0,
0,
0,
0,
0,
0,
0,
0,
0,
0,
0,
0,
0,
0,
0,
0,
0,
0,
0,
0,
0,
0,
0,
0,
0,
0,
0,
0,
0,
0,
0,
0,
0,
0,
0,
0,
0,
0,
0,
0,
0,
0,
0,
0,
0,
0,
0,
0,
#ENDOFDATA   :

File: SPI MM1 Bustamite[4][4].msa
#FORMAT      : EMSA/MAS Spectral Data File
#VERSION     : 1.0
#TITLE       : SPI MM1 Bustamite[4][all]
#DATE        : 11-MAR-2025
#TIME        : 14:07
#OWNER       : Unknown
#NPOINTS     : 4096
#NCOLUMNS    : 1
#XUNITS      : eV
#YUNITS      : counts
#DATATYPE    : Y
#XPERCHAN    : 9.99778
#OFFSET      : 1.69135
#BEAMKV      : 20
#SIGNALTYPE  : EDS
#ELEVANGLE   : 35
#AZIMANGLE   : 0
#LIVETIME    : 239.8908
#REALTIME    : 255.724
#PROBECUR    : 1.02902
#TAUWIND     : 0
#TDEADLYR    : 0
#TACTLYR     : 0.045
#TALWIND     : 0.025
#CHOFFSET    : 0.0
#XLABEL      : Energy (eV)
#YLABEL      : Counts
#XPOSITION   : 2.6285
#YPOSITION   : -2.6887
#ZPOSITION   : 30.9284
#EDSDET      : SD
##SPECIMEN   : SPI MM1 Bustamite[4][all]
##D2STDCMP   : Bustamite,(O:38.8357),(Si:22.7243),(Ca:16.2141),(Mn:22.2259),6.0
##DET_HASH   : 12273538-fd48-a23f-0a19-f1e6fa85caef
##CALIB_HASH : 6abaa72c-aa41-8738-0be9-f592914732f3
##WORKING    : 15.0 mm
##DET_NAME   : EDAX All
##DET_MODE   : MediumLE
#SPECTRUM    :
31,
192,
11083,
4959,
41931,
7018,
2434,
3022,
3354,
4671,
4355,
5082,
56551,
27050,
3761,
3174,
3667,
3306,
3145,
3059,
3046,
2881,
2873,
2914,
2797,
3096,
36855,
13321,
3976,
7301,
2175,
1989,
1891,
1893,
1884,
1809,
1701,
1754,
1609,
1633,
1644,
2584,
39740,
4580,
1433,
4193,
14061,
2656,
1095,
1080,
2070,
1500,
983,
978,
960,
991,
876,
909,
820,
777,
767,
850,
808,
769,
696,
678,
628,
587,
643,
589,
534,
552,
529,
475,
498,
484,
494,
476,
409,
400,
400,
431,
376,
345,
344,
340,
311,
281,
313,
287,
247,
257,
256,
241,
238,
182,
196,
179,
158,
169,
172,
167,
173,
137,
138,
143,
119,
129,
105,
117,
110,
85,
89,
57,
79,
62,
65,
59,
71,
53,
53,
38,
39,
24,
30,
28,
38,
27,
23,
26,
23,
23,
16,
18,
16,
14,
12,
7,
5,
4,
8,
2,
1,
1,
1,
0,
0,
1,
0,
0,
0,
0,
0,
0,
0,
0,
0,
0,
0,
0,
0,
0,
0,
0,
0,
0,
0,
0,
0,
0,
0,
1,
0,
0,
0,
0,
0,
0,
0,
0,
0,
0,
0,
0,
0,
0,
0,
0,
0,
0,
0,
0,
0,
0,
0,
0,
0,
0,
0,
0,
0,
0,
0,
0,
0,
1,
0,
0,
0,
0,
0,
0,
0,
0,
0,
0,
0,
0,
0,
0,
0,
0,
0,
0,
0,
0,
0,
0,
0,
0,
0,
0,
0,
0,
0,
0,
0,
0,
0,
0,
0,
0,
0,
0,
0,
0,
0,
0,
0,
0,
0,
0,
0,
0,
0,
0,
0,
0,
0,
0,
0,
0,
0,
0,
0,
0,
0,
0,
0,
0,
0,
0,
0,
0,
0,
0,
0,
0,
0,
0,
0,
0,
0,
0,
0,
0,
0,
0,
0,
0,
0,
0,
0,
0,
#ENDOFDATA   :

File: SPI MM1 Bustamite[5][4].msa
#FORMAT      : EMSA/MAS Spectral Data File
#VERSION     : 1.0
#TITLE       : SPI MM1 Bustamite[5][all]
#DATE        : 11-MAR-2025
#TIME        : 14:08
#OWNER       : Unknown
#NPOINTS     : 4096
#NCOLUMNS    : 1
#XUNITS      : eV
#YUNITS      : counts
#DATATYPE    : Y
#XPERCHAN    : 9.99778
#OFFSET      : 1.69135
#BEAMKV      : 20
#SIGNALTYPE  : EDS
#ELEVANGLE   : 35
#AZIMANGLE   : 0
#LIVETIME    : 240.08
#REALTIME    : 255.985
#PROBECUR    : 1.02902
#TAUWIND     : 0
#TDEADLYR    : 0
#TACTLYR     : 0.045
#TALWIND     : 0.025
#CHOFFSET    : 0.0
#XLABEL      : Energy (eV)
#YLABEL      : Counts
#XPOSITION   : 2.72013
#YPOSITION   : -2.77713
#ZPOSITION   : 30.9284
#EDSDET      : SD
##SPECIMEN   : SPI MM1 Bustamite[5][all]
##D2STDCMP   : Bustamite,(O:38.8357),(Si:22.7243),(Ca:16.2141),(Mn:22.2259),6.0
##DET_HASH   : 12273538-fd48-a23f-0a19-f1e6fa85caef
##CALIB_HASH : 6abaa72c-aa41-8738-0be9-f592914732f3
##WORKING    : 15.0 mm
##DET_NAME   : EDAX All
##DET_MODE   : MediumLE
#SPECTRUM    :
29,
170,
11322,
4990,
42650,
6997,
2385,
3122,
3393,
4802,
4444,
5314,
56368,
27285,
3853,
3221,
3572,
3155,
3218,
3246,
2964,
2987,
2905,
2771,
2839,
3271,
36806,
13558,
3924,
7470,
2232,
1939,
1979,
1976,
1906,
1771,
1782,
1735,
1660,
1668,
1652,
2573,
39638,
4477,
1422,
4129,
13971,
2771,
1133,
1154,
2080,
1579,
1002,
1009,
975,
947,
844,
916,
854,
805,
794,
809,
818,
700,
709,
667,
646,
638,
624,
634,
634,
570,
539,
473,
498,
460,
435,
435,
421,
410,
376,
386,
386,
390,
353,
336,
355,
300,
307,
277,
233,
245,
220,
228,
207,
197,
204,
232,
200,
172,
174,
148,
152,
145,
129,
108,
110,
120,
107,
101,
106,
94,
65,
80,
82,
63,
52,
54,
51,
47,
40,
43,
40,
33,
29,
38,
39,
24,
26,
17,
16,
12,
16,
13,
7,
11,
14,
9,
5,
3,
2,
3,
3,
1,
0,
0,
0,
0,
0,
0,
0,
0,
0,
0,
0,
0,
0,
0,
0,
0,
0,
0,
0,
0,
0,
0,
0,
2,
0,
0,
0,
1,
0,
0,
0,
0,
0,
0,
1,
0,
0,
0,
0,
0,
0,
0,
0,
0,
0,
0,
0,
0,
0,
0,
0,
0,
0,
0,
0,
0,
0,
0,
0,
0,
0,
0,
0,
0,
0,
0,
0,
0,
0,
0,
0,
0,
0,
0,
0,
0,
0,
0,
0,
0,
0,
0,
0,
0,
0,
0,
0,
0,
0,
0,
0,
0,
0,
0,
0,
0,
0,
0,
0,
0,
0,
0,
0,
0,
0,
0,
0,
0,
0,
0,
0,
0,
0,
0,
0,
0,
0,
0,
0,
0,
0,
0,
0,
0,
0,
0,
0,
0,
0,
0,
0,
0,
0,
0,
0,
0,
0,
0,
0,
0,
0,
0,
0,
0,
0,
0,
0,
0,
0,
0,
#ENDOFDATA   :

File: SPI MM1 Bustamite[6][4].msa
#FORMAT      : EMSA/MAS Spectral Data File
#VERSION     : 1.0
#TITLE       : SPI MM1 Bustamite[6][all]
#DATE        : 11-MAR-2025
#TIME        : 14:09
#OWNER       : Unknown
#NPOINTS     : 4096
#NCOLUMNS    : 1
#XUNITS      : eV
#YUNITS      : counts
#DATATYPE    : Y
#XPERCHAN    : 9.99778
#OFFSET      : 1.69135
#BEAMKV      : 20
#SIGNALTYPE  : EDS
#ELEVANGLE   : 35
#AZIMANGLE   : 0
#LIVETIME    : 239.983
#REALTIME    : 255.851
#PROBECUR    : 1.02902
#TAUWIND     : 0
#TDEADLYR    : 0
#TACTLYR     : 0.045
#TALWIND     : 0.025
#CHOFFSET    : 0.0
#XLABEL      : Energy (eV)
#YLABEL      : Counts
#XPOSITION   : 2.69669
#YPOSITION   : -2.76913
#ZPOSITION   : 30.9284
#EDSDET      : SD
##SPECIMEN   : SPI MM1 Bustamite[6][all]
##D2STDCMP   : Bustamite,(O:38.8357),(Si:22.7243),(Ca:16.2141),(Mn:22.2259),6.0
##DET_HASH   : 12273538-fd48-a23f-0a19-f1e6fa85caef
##CALIB_HASH : 6abaa72c-aa41-8738-0be9-f592914732f3
##WORKING    : 15.0 mm
##DET_NAME   : EDAX All
##DET_MODE   : MediumLE
#SPECTRUM    :
24,
197,
11149,
4897,
42115,
7044,
2413,
3132,
3240,
4683,
4367,
5222,
56055,
27056,
3944,
3141,
3671,
3252,
3086,
3077,
3155,
2938,
2923,
2792,
2773,
3189,
36913,
13361,
3951,
7522,
2258,
2002,
2057,
1918,
1793,
1834,
1757,
1709,
1708,
1659,
1565,
2567,
40004,
4623,
1371,
4304,
14022,
2660,
1144,
1126,
2055,
1497,
989,
1068,
998,
881,
851,
829,
798,
863,
754,
833,
853,
741,
697,
682,
630,
596,
601,
626,
545,
541,
550,
488,
503,
523,
450,
434,
423,
464,
375,
380,
363,
346,
328,
326,
341,
282,
331,
276,
255,
233,
224,
224,
202,
228,
222,
176,
180,
176,
158,
127,
150,
147,
135,
113,
128,
114,
108,
98,
91,
80,
91,
74,
73,
63,
72,
51,
67,
51,
55,
54,
57,
35,
36,
36,
35,
34,
27,
25,
26,
23,
24,
18,
10,
12,
10,
5,
5,
4,
5,
3,
2,
0,
0,
0,
2,
0,
0,
0,
0,
0,
0,
1,
0,
0,
1,
0,
0,
0,
0,
0,
0,
0,
0,
1,
0,
0,
0,
0,
0,
0,
1,
0,
0,
0,
0,
0,
0,
0,
0,
0,
0,
0,
0,
0,
0,
0,
0,
0,
0,
0,
0,
0,
0,
0,
0,
0,
0,
0,
0,
0,
0,
0,
0,
0,
0,
0,
0,
0,
0,
0,
0,
0,
0,
0,
0,
0,
0,
0,
0,
0,
0,
0,
0,
0,
0,
0,
0,
0,
0,
0,
0,
0,
0,
0,
0,
0,
0,
0,
0,
0,
0,
0,
0,
0,
0,
0,
0,
0,
0,
0,
0,
0,
0,
0,
0,
0,
0,
0,
0,
0,
0,
0,
0,
0,
0,
0,
0,
0,
0,
0,
0,
0,
0,
0,
0,
0,
0,
0,
0,
0,
0,
0,
0,
0,
0,
0,
0,
0,
0,
0,
0,
0,
#ENDOFDATA   :

File: SPI MM1 Bustamite[7][4].msa
#FORMAT      : EMSA/MAS Spectral Data File
#VERSION     : 1.0
#TITLE       : SPI MM1 Bustamite[7][all]
#DATE        : 11-MAR-2025
#TIME        : 14:10
#OWNER       : Unknown
#NPOINTS     : 4096
#NCOLUMNS    : 1
#XUNITS      : eV
#YUNITS      : counts
#DATATYPE    : Y
#XPERCHAN    : 9.99778
#OFFSET      : 1.69135
#BEAMKV      : 20
#SIGNALTYPE  : EDS
#ELEVANGLE   : 35
#AZIMANGLE   : 0
#LIVETIME    : 239.9274
#REALTIME    : 255.791
#PROBECUR    : 1.02902
#TAUWIND     : 0
#TDEADLYR    : 0
#TACTLYR     : 0.045
#TALWIND     : 0.025
#CHOFFSET    : 0.0
#XLABEL      : Energy (eV)
#YLABEL      : Counts
#XPOSITION   : 2.69589
#YPOSITION   : -2.76034
#ZPOSITION   : 30.9284
#EDSDET      : SD
##SPECIMEN   : SPI MM1 Bustamite[7][all]
##D2STDCMP   : Bustamite,(O:38.8357),(Si:22.7243),(Ca:16.2141),(Mn:22.2259),6.0
##DET_HASH   : 12273538-fd48-a23f-0a19-f1e6fa85caef
##CALIB_HASH : 6abaa72c-aa41-8738-0be9-f592914732f3
##WORKING    : 15.0 mm
##DET_NAME   : EDAX All
##DET_MODE   : MediumLE
#SPECTRUM    :
26,
163,
11083,
4947,
42092,
7023,
2406,
3104,
3342,
4733,
4423,
5402,
56288,
27060,
3901,
3279,
3603,
3261,
3221,
3132,
2950,
3011,
2914,
2935,
2759,
3110,
36958,
13211,
3840,
7358,
2178,
1946,
2026,
1919,
1851,
1799,
1730,
1673,
1627,
1765,
1611,
2616,
39974,
4683,
1431,
4233,
13972,
2702,
1165,
1136,
2014,
1549,
1021,
1023,
1116,
956,
887,
835,
859,
799,
812,
827,
812,
712,
685,
651,
598,
643,
639,
607,
598,
511,
545,
547,
506,
487,
431,
447,
425,
444,
408,
401,
362,
351,
344,
313,
320,
293,
321,
281,
277,
253,
224,
216,
218,
226,
199,
192,
172,
189,
168,
141,
131,
145,
141,
128,
138,
105,
94,
105,
94,
75,
85,
83,
75,
80,
67,
54,
66,
50,
52,
49,
37,
40,
41,
38,
37,
26,
29,
27,
24,
14,
9,
19,
10,
10,
10,
10,
10,
6,
1,
1,
0,
0,
0,
1,
0,
2,
0,
0,
0,
0,
0,
0,
0,
0,
1,
0,
0,
0,
0,
0,
2,
0,
0,
0,
0,
0,
0,
0,
0,
0,
0,
0,
0,
0,
0,
0,
0,
0,
0,
0,
0,
0,
0,
0,
0,
0,
0,
0,
0,
0,
0,
0,
0,
0,
0,
0,
0,
0,
0,
0,
0,
0,
0,
0,
0,
0,
0,
0,
0,
0,
0,
0,
0,
0,
0,
0,
0,
0,
0,
0,
0,
0,
0,
0,
0,
0,
0,
0,
0,
0,
0,
0,
0,
0,
0,
0,
0,
0,
0,
0,
0,
0,
0,
0,
0,
0,
0,
0,
0,
0,
0,
0,
0,
0,
0,
0,
0,
0,
0,
0,
0,
0,
0,
0,
0,
0,
0,
0,
0,
0,
0,
0,
0,
0,
0,
0,
0,
0,
0,
0,
0,
0,
0,
0,
0,
0,
0,
0,
0,
0,
0,
0,
#ENDOFDATA   :

File: SPI MM1 Calcite[0][4].msa
#FORMAT      : EMSA/MAS Spectral Data File
#VERSION     : 1.0
#TITLE       : SPI MM1 Calcite[0][all]
#DATE        : 11-MAR-2025
#TIME        : 14:11
#OWNER       : Unknown
#NPOINTS     : 4096
#NCOLUMNS    : 1
#XUNITS      : eV
#YUNITS      : counts
#DATATYPE    : Y
#XPERCHAN    : 9.99778
#OFFSET      : 1.69135
#BEAMKV      : 20
#SIGNALTYPE  : EDS
#ELEVANGLE   : 35
#AZIMANGLE   : 0
#LIVETIME    : 239.791
#REALTIME    : 251.95
#PROBECUR    : 1.02902
#TAUWIND     : 0
#TDEADLYR    : 0
#TACTLYR     : 0.045
#TALWIND     : 0.025
#CHOFFSET    : 0.0
#XLABEL      : Energy (eV)
#YLABEL      : Counts
#XPOSITION   : 0.2767
#YPOSITION   : -2.60628
#ZPOSITION   : 30.9284
#EDSDET      : SD
##SPECIMEN   : SPI MM1 Calcite[0][all]
##D2STDCMP   : Calcite,(C:12.0003),(O:47.9565),(Ca:40.0432),5.0
##DET_HASH   : 12273538-fd48-a23f-0a19-f1e6fa85caef
##CALIB_HASH : 6abaa72c-aa41-8738-0be9-f592914732f3
##WORKING    : 15.0 mm
##DET_NAME   : EDAX All
##DET_MODE   : MediumLE
#SPECTRUM    :
25,
275,
38588,
2855,
22891,
1608,
2155,
2624,
3005,
3489,
3822,
4015,
4246,
4435,
5650,
3613,
3822,
3383,
3320,
3037,
2939,
2927,
2717,
2700,
2481,
3362,
102564,
34418,
6417,
16601,
1641,
1485,
1414,
1399,
1381,
1359,
1213,
1201,
1227,
1166,
1199,
1155,
1162,
1110,
1060,
1017,
1019,
971,
861,
893,
828,
887,
822,
976,
750,
796,
694,
684,
648,
660,
596,
606,
540,
522,
541,
559,
481,
455,
487,
475,
413,
469,
378,
392,
351,
371,
322,
362,
320,
330,
299,
291,
307,
292,
250,
244,
223,
223,
187,
213,
186,
188,
155,
184,
160,
161,
172,
137,
156,
129,
122,
110,
112,
110,
92,
98,
81,
85,
79,
62,
62,
67,
67,
70,
48,
58,
45,
43,
49,
31,
29,
27,
30,
36,
17,
23,
16,
17,
10,
14,
19,
7,
14,
8,
4,
6,
12,
5,
2,
1,
1,
2,
0,
0,
1,
0,
0,
0,
0,
0,
1,
0,
0,
0,
0,
0,
0,
0,
0,
0,
0,
0,
0,
0,
0,
0,
0,
0,
0,
0,
0,
0,
0,
0,
0,
1,
0,
0,
0,
0,
0,
1,
0,
0,
0,
0,
0,
0,
0,
0,
0,
0,
0,
0,
0,
0,
0,
0,
0,
0,
0,
0,
0,
0,
0,
0,
0,
0,
0,
0,
0,
0,
0,
0,
0,
0,
0,
0,
0,
0,
0,
0,
0,
0,
0,
0,
0,
0,
0,
0,
0,
0,
0,
0,
0,
0,
0,
0,
0,
0,
0,
0,
0,
0,
0,
0,
0,
0,
0,
0,
0,
0,
0,
0,
0,
0,
0,
0,
0,
0,
0,
0,
0,
0,
0,
0,
0,
0,
0,
0,
0,
0,
0,
0,
0,
0,
0,
0,
0,
0,
0,
0,
0,
0,
0,
0,
0,
0,
0,
0,
0,
0,
0,
0,
#ENDOFDATA   :

File: SPI MM1 Calcite[3][4].msa
#FORMAT      : EMSA/MAS Spectral Data File
#VERSION     : 1.0
#TITLE       : SPI MM1 Calcite[3][all]
#DATE        : 11-MAR-2025
#TIME        : 14:15
#OWNER       : Unknown
#NPOINTS     : 4096
#NCOLUMNS    : 1
#XUNITS      : eV
#YUNITS      : counts
#DATATYPE    : Y
#XPERCHAN    : 9.99778
#OFFSET      : 1.69135
#BEAMKV      : 20
#SIGNALTYPE  : EDS
#ELEVANGLE   : 35
#AZIMANGLE   : 0
#LIVETIME    : 239.905
#REALTIME    : 252.1939
#PROBECUR    : 1.02902
#TAUWIND     : 0
#TDEADLYR    : 0
#TACTLYR     : 0.045
#TALWIND     : 0.025
#CHOFFSET    : 0.0
#XLABEL      : Energy (eV)
#YLABEL      : Counts
#XPOSITION   : -0.11887
#YPOSITION   : -2.84361
#ZPOSITION   : 30.9284
#EDSDET      : SD
##SPECIMEN   : SPI MM1 Calcite[3][all]
##D2STDCMP   : Calcite,(C:12.0003),(O:47.9565),(Ca:40.0432),5.0
##DET_HASH   : 12273538-fd48-a23f-0a19-f1e6fa85caef
##CALIB_HASH : 6abaa72c-aa41-8738-0be9-f592914732f3
##WORKING    : 15.0 mm
##DET_NAME   : EDAX All
##DET_MODE   : MediumLE
#SPECTRUM    :
25,
285,
39074,
2877,
23874,
1637,
2090,
2519,
2927,
3498,
3773,
4024,
4210,
4344,
5680,
3510,
3531,
3202,
3168,
3123,
2942,
2856,
2798,
2766,
2433,
3432,
103961,
34680,
6488,
16877,
1657,
1430,
1484,
1462,
1394,
1298,
1336,
1309,
1237,
1191,
1169,
1093,
1224,
1117,
1064,
1023,
991,
929,
862,
902,
841,
857,
827,
942,
761,
734,
718,
699,
696,
615,
606,
605,
586,
585,
571,
504,
477,
479,
445,
486,
452,
399,
428,
385,
372,
368,
347,
348,
307,
344,
323,
310,
286,
302,
264,
261,
243,
213,
193,
209,
200,
191,
184,
178,
187,
155,
143,
134,
134,
139,
110,
119,
108,
102,
110,
105,
77,
65,
74,
53,
69,
65,
63,
63,
49,
43,
39,
43,
34,
49,
33,
26,
28,
30,
27,
19,
27,
19,
21,
15,
13,
13,
10,
4,
4,
13,
3,
4,
4,
3,
1,
1,
2,
0,
0,
0,
0,
0,
0,
1,
0,
0,
0,
0,
0,
0,
0,
0,
0,
0,
0,
0,
0,
0,
0,
0,
0,
0,
0,
1,
0,
0,
0,
0,
0,
0,
0,
0,
0,
0,
0,
0,
0,
0,
0,
0,
0,
0,
0,
0,
0,
0,
0,
0,
0,
0,
0,
0,
0,
0,
0,
0,
0,
0,
0,
0,
0,
0,
0,
0,
0,
0,
0,
0,
0,
0,
0,
0,
0,
0,
0,
0,
0,
0,
0,
0,
0,
0,
0,
0,
0,
0,
0,
0,
0,
0,
0,
0,
0,
0,
0,
0,
0,
0,
0,
0,
0,
0,
0,
0,
0,
0,
0,
0,
0,
0,
0,
0,
0,
0,
0,
0,
0,
0,
0,
0,
0,
0,
0,
0,
0,
0,
0,
0,
0,
0,
0,
0,
0,
0,
0,
0,
0,
0,
0,
0,
0,
0,
0,
0,
0,
0,
0,
0,
#ENDOFDATA   :

File: SPI MM1 Calcite[4][4].msa
#FORMAT      : EMSA/MAS Spectral Data File
#VERSION     : 1.0
#TITLE       : SPI MM1 Calcite[4][all]
#DATE        : 11-MAR-2025
#TIME        : 14:16
#OWNER       : Unknown
#NPOINTS     : 4096
#NCOLUMNS    : 1
#XUNITS      : eV
#YUNITS      : counts
#DATATYPE    : Y
#XPERCHAN    : 9.99778
#OFFSET      : 1.69135
#BEAMKV      : 20
#SIGNALTYPE  : EDS
#ELEVANGLE   : 35
#AZIMANGLE   : 0
#LIVETIME    : 239.919
#REALTIME    : 252.201
#PROBECUR    : 1.02902
#TAUWIND     : 0
#TDEADLYR    : 0
#TACTLYR     : 0.045
#TALWIND     : 0.025
#CHOFFSET    : 0.0
#XLABEL      : Energy (eV)
#YLABEL      : Counts
#XPOSITION   : 0.11014
#YPOSITION   : -2.95603
#ZPOSITION   : 30.9284
#EDSDET      : SD
##SPECIMEN   : SPI MM1 Calcite[4][all]
##D2STDCMP   : Calcite,(C:12.0003),(O:47.9565),(Ca:40.0432),5.0
##DET_HASH   : 12273538-fd48-a23f-0a19-f1e6fa85caef
##CALIB_HASH : 6abaa72c-aa41-8738-0be9-f592914732f3
##WORKING    : 15.0 mm
##DET_NAME   : EDAX All
##DET_MODE   : MediumLE
#SPECTRUM    :
28,
262,
38624,
2874,
23480,
1636,
2055,
2476,
3062,
3581,
3749,
4160,
4322,
4397,
5709,
3626,
3644,
3350,
3146,
3035,
2963,
2884,
2864,
2791,
2537,
3345,
103594,
34702,
6402,
16889,
1638,
1452,
1387,
1364,
1375,
1336,
1239,
1288,
1250,
1198,
1216,
1142,
1234,
1093,
1021,
1045,
1073,
951,
886,
904,
866,
863,
817,
914,
758,
725,
689,
655,
627,
634,
659,
591,
532,
568,
519,
459,
525,
491,
467,
458,
450,
437,
410,
433,
401,
364,
392,
340,
314,
318,
328,
286,
297,
274,
260,
240,
233,
226,
236,
188,
205,
187,
177,
157,
183,
168,
132,
146,
139,
128,
133,
105,
92,
104,
100,
98,
78,
85,
66,
65,
55,
59,
74,
54,
54,
50,
41,
46,
39,
29,
42,
33,
41,
31,
29,
22,
19,
15,
23,
20,
14,
15,
11,
5,
9,
6,
4,
8,
9,
5,
1,
0,
2,
0,
0,
0,
0,
1,
0,
0,
0,
1,
1,
0,
0,
0,
0,
0,
0,
0,
0,
0,
1,
0,
0,
0,
0,
0,
0,
0,
0,
0,
0,
0,
0,
0,
0,
0,
0,
0,
0,
0,
0,
0,
0,
0,
0,
0,
0,
0,
0,
0,
0,
0,
0,
0,
0,
0,
0,
0,
0,
0,
0,
0,
0,
0,
0,
0,
0,
0,
0,
0,
0,
0,
0,
0,
0,
0,
0,
0,
0,
0,
0,
0,
0,
0,
0,
0,
0,
0,
0,
0,
0,
0,
0,
0,
0,
0,
0,
0,
0,
0,
0,
0,
0,
0,
0,
0,
0,
0,
0,
0,
0,
0,
0,
0,
0,
0,
0,
0,
0,
0,
0,
0,
0,
0,
0,
0,
0,
0,
0,
0,
0,
0,
0,
0,
0,
0,
0,
0,
0,
0,
0,
0,
0,
0,
0,
0,
0,
0,
0,
0,
0,
0,
#ENDOFDATA   :

File: SPI MM1 Calcite[6][4].msa
#FORMAT      : EMSA/MAS Spectral Data File
#VERSION     : 1.0
#TITLE       : SPI MM1 Calcite[6][all]
#DATE        : 11-MAR-2025
#TIME        : 14:18
#OWNER       : Unknown
#NPOINTS     : 4096
#NCOLUMNS    : 1
#XUNITS      : eV
#YUNITS      : counts
#DATATYPE    : Y
#XPERCHAN    : 9.99778
#OFFSET      : 1.69135
#BEAMKV      : 20
#SIGNALTYPE  : EDS
#ELEVANGLE   : 35
#AZIMANGLE   : 0
#LIVETIME    : 239.904
#REALTIME    : 252.199
#PROBECUR    : 1.02902
#TAUWIND     : 0
#TDEADLYR    : 0
#TACTLYR     : 0.045
#TALWIND     : 0.025
#CHOFFSET    : 0.0
#XLABEL      : Energy (eV)
#YLABEL      : Counts
#XPOSITION   : 0.12263
#YPOSITION   : -2.95603
#ZPOSITION   : 30.9284
#EDSDET      : SD
##SPECIMEN   : SPI MM1 Calcite[6][all]
##D2STDCMP   : Calcite,(C:12.0003),(O:47.9565),(Ca:40.0432),5.0
##DET_HASH   : 12273538-fd48-a23f-0a19-f1e6fa85caef
##CALIB_HASH : 6abaa72c-aa41-8738-0be9-f592914732f3
##WORKING    : 15.0 mm
##DET_NAME   : EDAX All
##DET_MODE   : MediumLE
#SPECTRUM    :
37,
287,
38988,
2835,
23651,
1591,
2070,
2407,
3068,
3554,
3926,
4043,
4201,
4461,
5668,
3709,
3670,
3288,
3178,
3068,
2844,
2801,
2811,
2737,
2450,
3480,
104233,
34866,
6385,
16805,
1658,
1449,
1477,
1452,
1343,
1352,
1343,
1265,
1260,
1197,
1227,
1160,
1272,
1047,
978,
1019,
1120,
940,
914,
859,
828,
900,
890,
983,
741,
812,
715,
660,
653,
666,
595,
627,
595,
580,
567,
521,
528,
516,
484,
459,
419,
412,
429,
411,
413,
335,
363,
360,
343,
328,
318,
290,
291,
265,
261,
252,
241,
201,
211,
240,
192,
184,
188,
195,
146,
167,
136,
141,
125,
122,
111,
130,
118,
123,
92,
82,
73,
78,
76,
79,
64,
56,
75,
54,
40,
48,
45,
44,
39,
29,
35,
27,
28,
38,
27,
20,
21,
22,
24,
15,
22,
13,
8,
13,
10,
6,
6,
7,
3,
6,
5,
2,
1,
0,
1,
1,
0,
0,
0,
0,
0,
0,
0,
0,
1,
1,
0,
0,
0,
0,
0,
0,
0,
0,
0,
0,
0,
0,
0,
0,
1,
0,
0,
0,
0,
0,
0,
0,
0,
0,
0,
0,
0,
0,
0,
0,
0,
0,
0,
0,
0,
0,
0,
0,
0,
0,
0,
0,
0,
0,
0,
0,
0,
0,
0,
0,
0,
0,
0,
0,
0,
0,
0,
0,
0,
0,
0,
0,
0,
0,
0,
0,
0,
0,
0,
0,
0,
0,
0,
0,
0,
0,
0,
0,
0,
0,
0,
0,
0,
0,
0,
0,
0,
0,
0,
0,
0,
0,
0,
0,
0,
0,
0,
0,
0,
0,
0,
0,
0,
0,
0,
0,
0,
0,
0,
0,
0,
0,
0,
0,
0,
0,
0,
0,
0,
0,
0,
0,
0,
0,
0,
0,
0,
0,
0,
0,
0,
0,
0,
0,
0,
0,
0,
0,
#ENDOFDATA   :

File: SPI MM1 Chalcopyrite[0][4].msa
#FORMAT      : EMSA/MAS Spectral Data File
#VERSION     : 1.0
#TITLE       : SPI MM1 Chalcopyrite[0][all]
#DATE        : 11-MAR-2025
#TIME        : 14:26
#OWNER       : Unknown
#NPOINTS     : 4096
#NCOLUMNS    : 1
#XUNITS      : eV
#YUNITS      : counts
#DATATYPE    : Y
#XPERCHAN    : 9.99778
#OFFSET      : 1.69135
#BEAMKV      : 20
#SIGNALTYPE  : EDS
#ELEVANGLE   : 35
#AZIMANGLE   : 0
#LIVETIME    : 239.883
#REALTIME    : 260.4547
#PROBECUR    : 1.02809
#TAUWIND     : 0
#TDEADLYR    : 0
#TACTLYR     : 0.045
#TALWIND     : 0.025
#CHOFFSET    : 0.0
#XLABEL      : Energy (eV)
#YLABEL      : Counts
#XPOSITION   : -4.89738
#YPOSITION   : -3.86636
#ZPOSITION   : 30.9284
#EDSDET      : SD
##SPECIMEN   : SPI MM1 Chalcopyrite[0][all]
##D2STDCMP   : Chalcopyrite,(S:34.9407),(Fe:30.4314),(Cu:34.6279),4.2
##DET_HASH   : 12273538-fd48-a23f-0a19-f1e6fa85caef
##CALIB_HASH : 6abaa72c-aa41-8738-0be9-f592914732f3
##WORKING    : 15.0 mm
##DET_NAME   : EDAX All
##DET_MODE   : MediumLE
#SPECTRUM    :
21,
415,
10757,
3293,
13544,
42694,
11599,
28400,
3554,
4066,
4728,
5228,
5443,
5812,
5419,
5836,
66003,
51886,
10855,
3664,
3767,
3820,
3793,
3899,
3614,
3634,
3495,
3409,
3359,
3243,
3205,
3093,
3078,
3507,
2857,
2902,
2696,
2743,
2572,
2463,
2539,
2458,
2245,
2226,
2392,
17732,
50820,
2524,
2025,
2049,
7563,
4677,
1671,
1629,
1588,
1480,
1866,
25458,
16823,
1415,
1316,
1293,
1446,
3490,
4359,
1109,
998,
1001,
947,
1012,
893,
864,
876,
918,
894,
860,
725,
723,
735,
707,
714,
645,
611,
584,
605,
559,
526,
470,
493,
446,
480,
432,
438,
397,
397,
387,
367,
335,
297,
317,
281,
268,
280,
267,
233,
236,
224,
208,
168,
192,
174,
171,
175,
154,
155,
147,
114,
91,
113,
119,
111,
94,
85,
64,
71,
69,
65,
64,
47,
57,
32,
30,
29,
42,
20,
22,
24,
17,
19,
12,
11,
9,
3,
2,
2,
0,
2,
2,
1,
1,
3,
1,
2,
2,
1,
2,
1,
0,
1,
0,
0,
1,
0,
2,
0,
0,
0,
0,
1,
1,
1,
0,
0,
1,
0,
0,
0,
0,
0,
0,
0,
0,
0,
0,
0,
0,
0,
2,
0,
0,
1,
0,
0,
0,
0,
0,
0,
0,
1,
0,
0,
0,
0,
0,
0,
0,
0,
0,
0,
0,
0,
0,
0,
0,
0,
0,
0,
0,
0,
0,
0,
0,
0,
0,
0,
0,
0,
0,
0,
0,
0,
0,
0,
0,
0,
0,
0,
0,
0,
0,
0,
0,
0,
0,
0,
0,
0,
0,
0,
0,
0,
0,
0,
0,
0,
0,
0,
0,
0,
0,
0,
0,
0,
0,
0,
0,
0,
0,
0,
0,
0,
0,
0,
0,
0,
0,
0,
0,
0,
0,
0,
0,
0,
0,
0,
0,
0,
0,
0,
0,
0,
0,
0,
0,
#ENDOFDATA   :