Folder: spex_quant/N132962/Quantification/MMM1 (part 2)

File: SPI MM1 Anhydrite[0][4].msa
#FORMAT      : EMSA/MAS Spectral Data File
#VERSION     : 1.0
#TITLE       : SPI MM1 Anhydrite[0][all]
#DATE        : 11-MAR-2025
#TIME        : 13:44
#OWNER       : Unknown
#NPOINTS     : 4096
#NCOLUMNS    : 1
#XUNITS      : eV
#YUNITS      : counts
#DATATYPE    : Y
#XPERCHAN    : 9.99778
#OFFSET      : 1.69135
#BEAMKV      : 20
#SIGNALTYPE  : EDS
#ELEVANGLE   : 35
#AZIMANGLE   : 0
#LIVETIME    : 239.835
#REALTIME    : 255.022
#PROBECUR    : 1.02853
#TAUWIND     : 0
#TDEADLYR    : 0
#TACTLYR     : 0.045
#TALWIND     : 0.025
#CHOFFSET    : 0.0
#XLABEL      : Energy (eV)
#YLABEL      : Counts
#XPOSITION   : 4.93669
#YPOSITION   : -5.04917
#ZPOSITION   : 30.9284
#EDSDET      : SD
##SPECIMEN   : SPI MM1 Anhydrite[0][all]
##D2STDCMP   : Anhydrite,(O:47.0085),(S:23.5529),(Ca:29.4387),5.0
##DET_HASH   : 12273538-fd48-a23f-0a19-f1e6fa85caef
##CALIB_HASH : 6abaa72c-aa41-8738-0be9-f592914732f3
##WORKING    : 15.0 mm
##DET_NAME   : EDAX All
##DET_MODE   : MediumLE
#SPECTRUM    :
29,
657,
11784,
3261,
30361,
2278,
2603,
3007,
3648,
4086,
4583,
4644,
4925,
7443,
5994,
4554,
49673,
42230,
7039,
2643,
2794,
2703,
2591,
2601,
2353,
3009,
71142,
24194,
5043,
12369,
1786,
1647,
1582,
1737,
1568,
1469,
1476,
1526,
1391,
1340,
1358,
1229,
1195,
1368,
1142,
1165,
1187,
1017,
993,
978,
1007,
892,
871,
992,
829,
857,
770,
701,
763,
734,
681,
680,
659,
618,
566,
584,
579,
533,
539,
526,
486,
457,
465,
412,
440,
434,
405,
361,
395,
342,
355,
358,
316,
271,
301,
269,
287,
276,
257,
227,
247,
213,
185,
183,
198,
186,
158,
162,
170,
143,
147,
164,
127,
120,
115,
110,
108,
112,
95,
91,
75,
73,
73,
73,
68,
56,
53,
60,
52,
46,
57,
34,
25,
26,
24,
20,
24,
30,
15,
21,
15,
9,
11,
15,
11,
8,
7,
5,
5,
1,
4,
1,
0,
0,
0,
0,
0,
0,
0,
0,
1,
0,
0,
0,
0,
0,
1,
0,
0,
0,
0,
1,
0,
0,
0,
0,
0,
0,
0,
0,
0,
0,
0,
0,
0,
0,
0,
0,
0,
0,
0,
0,
0,
0,
0,
0,
0,
0,
0,
0,
0,
0,
0,
0,
0,
0,
0,
0,
0,
0,
0,
0,
0,
0,
0,
0,
0,
0,
0,
0,
0,
0,
0,
0,
0,
0,
0,
0,
0,
0,
0,
0,
0,
0,
0,
0,
0,
0,
0,
0,
0,
0,
0,
0,
0,
0,
0,
0,
0,
0,
0,
0,
0,
0,
0,
0,
0,
0,
0,
0,
0,
0,
0,
0,
0,
0,
0,
0,
0,
0,
0,
0,
0,
0,
0,
0,
0,
0,
0,
0,
0,
0,
0,
0,
0,
0,
0,
0,
0,
0,
0,
0,
0,
0,
0,
0,
0,
0,
0,
0,
0,
0,
0,
0,
#ENDOFDATA   :

File: SPI MM1 Anhydrite[5][4].msa
#FORMAT      : EMSA/MAS Spectral Data File
#VERSION     : 1.0
#TITLE       : SPI MM1 Anhydrite[5][all]
#DATE        : 11-MAR-2025
#TIME        : 13:49
#OWNER       : Unknown
#NPOINTS     : 4096
#NCOLUMNS    : 1
#XUNITS      : eV
#YUNITS      : counts
#DATATYPE    : Y
#XPERCHAN    : 9.99778
#OFFSET      : 1.69135
#BEAMKV      : 20
#SIGNALTYPE  : EDS
#ELEVANGLE   : 35
#AZIMANGLE   : 0
#LIVETIME    : 239.872
#REALTIME    : 255.074
#PROBECUR    : 1.02902
#TAUWIND     : 0
#TDEADLYR    : 0
#TACTLYR     : 0.045
#TALWIND     : 0.025
#CHOFFSET    : 0.0
#XLABEL      : Energy (eV)
#YLABEL      : Counts
#XPOSITION   : 4.95966
#YPOSITION   : -5.04733
#ZPOSITION   : 30.9284
#EDSDET      : SD
##SPECIMEN   : SPI MM1 Anhydrite[5][all]
##D2STDCMP   : Anhydrite,(O:47.0085),(S:23.5529),(Ca:29.4387),5.0
##DET_HASH   : 12273538-fd48-a23f-0a19-f1e6fa85caef
##CALIB_HASH : 6abaa72c-aa41-8738-0be9-f592914732f3
##WORKING    : 15.0 mm
##DET_NAME   : EDAX All
##DET_MODE   : MediumLE
#SPECTRUM    :
35,
686,
11655,
3356,
30609,
2216,
2646,
3068,
3546,
4024,
4540,
4760,
4897,
7146,
5989,
4493,
49884,
41961,
7075,
2731,
2869,
2667,
2593,
2614,
2398,
3107,
71323,
24278,
5024,
12330,
1862,
1612,
1619,
1735,
1556,
1476,
1388,
1371,
1339,
1421,
1267,
1257,
1234,
1351,
1160,
1173,
1162,
1110,
1009,
940,
1006,
949,
912,
962,
852,
795,
786,
733,
733,
741,
654,
670,
704,
605,
622,
564,
550,
588,
542,
537,
460,
474,
470,
477,
427,
372,
367,
358,
339,
381,
378,
319,
314,
267,
286,
298,
299,
273,
264,
235,
242,
211,
176,
203,
171,
196,
145,
157,
154,
140,
151,
128,
114,
121,
112,
124,
96,
83,
81,
77,
73,
64,
72,
65,
65,
71,
55,
42,
50,
52,
41,
37,
29,
37,
38,
26,
20,
22,
21,
21,
18,
14,
18,
12,
10,
11,
5,
5,
6,
6,
6,
0,
1,
0,
0,
0,
0,
0,
0,
0,
0,
0,
0,
0,
1,
0,
0,
0,
0,
0,
0,
0,
0,
0,
0,
0,
0,
0,
0,
0,
0,
0,
0,
0,
1,
0,
0,
0,
0,
0,
0,
0,
0,
0,
0,
0,
0,
0,
0,
0,
0,
0,
0,
0,
0,
0,
0,
0,
0,
0,
0,
0,
0,
0,
0,
1,
0,
0,
0,
0,
0,
0,
0,
0,
0,
0,
0,
0,
0,
0,
0,
0,
0,
0,
0,
0,
0,
0,
0,
0,
0,
0,
0,
0,
0,
0,
0,
0,
0,
0,
0,
0,
0,
0,
0,
0,
0,
0,
0,
0,
0,
0,
0,
0,
0,
0,
0,
0,
0,
0,
0,
0,
0,
0,
0,
0,
0,
0,
0,
0,
0,
0,
0,
0,
0,
0,
0,
0,
0,
0,
0,
0,
0,
0,
0,
0,
0,
0,
0,
0,
0,
0,
0,
0,
#ENDOFDATA   :

File: SPI MM1 Anhydrite[7][4].msa
#FORMAT      : EMSA/MAS Spectral Data File
#VERSION     : 1.0
#TITLE       : SPI MM1 Anhydrite[7][all]
#DATE        : 11-MAR-2025
#TIME        : 13:52
#OWNER       : Unknown
#NPOINTS     : 4096
#NCOLUMNS    : 1
#XUNITS      : eV
#YUNITS      : counts
#DATATYPE    : Y
#XPERCHAN    : 9.99778
#OFFSET      : 1.69135
#BEAMKV      : 20
#SIGNALTYPE  : EDS
#ELEVANGLE   : 35
#AZIMANGLE   : 0
#LIVETIME    : 239.8962
#REALTIME    : 255.0767
#PROBECUR    : 1.02902
#TAUWIND     : 0
#TDEADLYR    : 0
#TACTLYR     : 0.045
#TALWIND     : 0.025
#CHOFFSET    : 0.0
#XLABEL      : Energy (eV)
#YLABEL      : Counts
#XPOSITION   : 4.99742
#YPOSITION   : -5.03999
#ZPOSITION   : 30.9284
#EDSDET      : SD
##SPECIMEN   : SPI MM1 Anhydrite[7][all]
##D2STDCMP   : Anhydrite,(O:47.0085),(S:23.5529),(Ca:29.4387),5.0
##DET_HASH   : 12273538-fd48-a23f-0a19-f1e6fa85caef
##CALIB_HASH : 6abaa72c-aa41-8738-0be9-f592914732f3
##WORKING    : 15.0 mm
##DET_NAME   : EDAX All
##DET_MODE   : MediumLE
#SPECTRUM    :
29,
694,
11686,
3237,
30600,
2205,
2592,
2887,
3576,
4053,
4483,
4706,
5000,
7144,
6080,
4582,
49491,
42630,
7088,
2706,
2802,
2623,
2611,
2623,
2462,
3036,
71297,
24372,
4949,
12264,
1826,
1582,
1576,
1800,
1519,
1467,
1466,
1419,
1381,
1348,
1277,
1258,
1245,
1391,
1153,
1112,
1162,
1057,
996,
983,
968,
879,
939,
969,
821,
829,
800,
768,
759,
686,
676,
615,
626,
630,
604,
591,
571,
565,
519,
507,
508,
470,
431,
437,
417,
411,
412,
385,
393,
363,
355,
338,
312,
317,
308,
251,
245,
258,
220,
239,
245,
218,
180,
209,
172,
178,
168,
181,
168,
141,
161,
159,
142,
118,
120,
96,
101,
101,
93,
90,
98,
82,
80,
63,
72,
58,
64,
53,
56,
45,
33,
44,
38,
37,
24,
39,
30,
33,
24,
15,
17,
16,
14,
18,
14,
7,
7,
8,
13,
5,
2,
3,
1,
0,
0,
0,
0,
0,
0,
0,
0,
0,
0,
0,
0,
0,
1,
0,
0,
0,
0,
0,
0,
0,
0,
0,
0,
1,
1,
0,
0,
0,
0,
0,
0,
0,
0,
0,
0,
0,
0,
0,
0,
0,
1,
0,
0,
0,
0,
0,
0,
0,
0,
0,
0,
0,
0,
0,
0,
0,
0,
0,
0,
0,
0,
0,
0,
0,
0,
0,
0,
0,
0,
0,
0,
0,
0,
0,
0,
0,
0,
0,
0,
0,
0,
0,
0,
0,
0,
0,
0,
0,
0,
0,
0,
0,
0,
0,
0,
0,
0,
0,
0,
0,
0,
0,
0,
0,
0,
0,
0,
0,
0,
0,
0,
0,
0,
0,
0,
0,
0,
0,
0,
0,
0,
0,
0,
0,
0,
0,
0,
0,
0,
0,
0,
0,
0,
0,
0,
0,
0,
0,
0,
0,
0,
0,
0,
0,
0,
0,
0,
0,
0,
0,
#ENDOFDATA   :

File: SPI MM1 Arsenopyrite[6][4].msa
#FORMAT      : EMSA/MAS Spectral Data File
#VERSION     : 1.0
#TITLE       : SPI MM1 Arsenopyrite[6][all]
#DATE        : 11-MAR-2025
#TIME        : 13:41
#OWNER       : Unknown
#NPOINTS     : 4096
#NCOLUMNS    : 1
#XUNITS      : eV
#YUNITS      : counts
#DATATYPE    : Y
#XPERCHAN    : 9.99778
#OFFSET      : 1.69135
#BEAMKV      : 20
#SIGNALTYPE  : EDS
#ELEVANGLE   : 35
#AZIMANGLE   : 0
#LIVETIME    : 239.824
#REALTIME    : 260.777
#PROBECUR    : 1.02853
#TAUWIND     : 0
#TDEADLYR    : 0
#TACTLYR     : 0.045
#TALWIND     : 0.025
#CHOFFSET    : 0.0
#XLABEL      : Energy (eV)
#YLABEL      : Counts
#XPOSITION   : 2.10717
#YPOSITION   : -4.99533
#ZPOSITION   : 30.9284
#EDSDET      : SD
##SPECIMEN   : SPI MM1 Arsenopyrite[6][all]
##D2STDCMP   : Arsenopyrite,(S:19.6897),(Fe:34.2972),(As:46.0131),6.0
##DET_HASH   : 12273538-fd48-a23f-0a19-f1e6fa85caef
##CALIB_HASH : 6abaa72c-aa41-8738-0be9-f592914732f3
##WORKING    : 15.0 mm
##DET_NAME   : EDAX All
##DET_MODE   : MediumLE
#SPECTRUM    :
31,
372,
11671,
3353,
11292,
57726,
4831,
5396,
14674,
146178,
10582,
4325,
4482,
4758,
4733,
4929,
33471,
26745,
7829,
4265,
4195,
4204,
4244,
4027,
4058,
4109,
4155,
3911,
3861,
3854,
3701,
3489,
3475,
3644,
3275,
3069,
3014,
3001,
2958,
2938,
2693,
2765,
2617,
2561,
2695,
19823,
57672,
2860,
2151,
2368,
8573,
5269,
1868,
1803,
1828,
1778,
1626,
1582,
1589,
1525,
1561,
1397,
1505,
1367,
1372,
1331,
1211,
1193,
1215,
1155,
1132,
1071,
1079,
1123,
2450,
17493,
5805,
965,
879,
856,
773,
778,
757,
1904,
2794,
919,
649,
607,
580,
548,
483,
520,
532,
519,
393,
453,
405,
403,
387,
360,
341,
349,
319,
278,
321,
269,
259,
274,
227,
224,
211,
198,
187,
164,
167,
154,
160,
150,
127,
114,
129,
136,
108,
95,
79,
82,
76,
72,
73,
56,
43,
55,
53,
36,
30,
28,
28,
22,
16,
14,
12,
6,
4,
2,
1,
1,
0,
2,
3,
1,
3,
2,
1,
0,
0,
0,
3,
1,
1,
1,
3,
0,
1,
2,
0,
0,
0,
0,
0,
1,
0,
0,
1,
0,
1,
0,
0,
0,
0,
0,
0,
0,
0,
0,
0,
0,
1,
0,
0,
0,
0,
0,
0,
0,
0,
0,
0,
0,
0,
0,
0,
0,
0,
0,
0,
0,
0,
0,
0,
1,
0,
0,
0,
0,
0,
0,
0,
0,
0,
0,
0,
0,
0,
0,
0,
0,
0,
0,
0,
0,
0,
0,
0,
0,
0,
0,
0,
0,
0,
0,
0,
0,
0,
0,
0,
0,
0,
0,
0,
0,
0,
0,
0,
0,
0,
0,
0,
0,
0,
0,
0,
0,
0,
0,
0,
0,
0,
0,
0,
0,
0,
0,
0,
0,
0,
0,
0,
0,
0,
0,
0,
0,
0,
0,
0,
0,
0,
0,
0,
0,
0,
0,
0,
0,
#ENDOFDATA   :

File: SPI MM1 Barite[0][4].msa
#FORMAT      : EMSA/MAS Spectral Data File
#VERSION     : 1.0
#TITLE       : SPI MM1 Barite[0][all]
#DATE        : 11-MAR-2025
#TIME        : 13:25
#OWNER       : Unknown
#NPOINTS     : 4096
#NCOLUMNS    : 1
#XUNITS      : eV
#YUNITS      : counts
#DATATYPE    : Y
#XPERCHAN    : 9.99778
#OFFSET      : 1.69135
#BEAMKV      : 20
#SIGNALTYPE  : EDS
#ELEVANGLE   : 35
#AZIMANGLE   : 0
#LIVETIME    : 239.875
#REALTIME    : 258.922
#PROBECUR    : 1.02853
#TAUWIND     : 0
#TDEADLYR    : 0
#TACTLYR     : 0.045
#TALWIND     : 0.025
#CHOFFSET    : 0.0
#XLABEL      : Energy (eV)
#YLABEL      : Counts
#XPOSITION   : -0.37608
#YPOSITION   : -5.02021
#ZPOSITION   : 30.9284
#EDSDET      : SD
##SPECIMEN   : SPI MM1 Barite[0][all]
##DET_HASH   : 12273538-fd48-a23f-0a19-f1e6fa85caef
##CALIB_HASH : 6abaa72c-aa41-8738-0be9-f592914732f3
##WORKING    : 15.0 mm
##DET_NAME   : EDAX All
##DET_MODE   : MediumLE
#SPECTRUM    :
22,
1057,
13797,
8181,
55120,
5982,
5250,
6034,
4348,
4324,
4693,
5189,
5676,
6326,
5583,
5781,
27972,
24469,
7330,
5166,
5169,
4821,
5021,
4805,
4595,
4620,
4337,
4321,
6489,
4769,
4191,
9301,
83370,
5160,
18967,
26007,
6142,
15764,
3290,
4830,
5192,
3890,
3377,
2655,
2316,
2386,
2516,
2193,
2167,
2122,
2098,
2034,
1990,
2035,
2046,
1840,
1721,
1699,
1738,
1727,
1647,
1580,
1537,
1515,
1544,
1509,
1428,
1390,
1341,
1271,
1285,
1245,
1218,
1139,
1099,
1080,
1061,
1034,
1016,
971,
926,
871,
805,
862,
819,
789,
742,
751,
702,
627,
589,
602,
562,
598,
530,
508,
498,
471,
455,
443,
444,
374,
381,
336,
366,
342,
292,
310,
276,
261,
265,
240,
258,
182,
226,
178,
181,
174,
164,
144,
146,
128,
137,
121,
104,
93,
87,
77,
72,
70,
64,
63,
56,
49,
49,
26,
36,
36,
24,
18,
13,
5,
6,
1,
2,
2,
2,
1,
1,
1,
0,
1,
1,
1,
0,
1,
0,
1,
0,
0,
2,
3,
0,
1,
0,
0,
1,
0,
0,
0,
0,
0,
0,
0,
0,
1,
0,
0,
0,
1,
0,
1,
0,
0,
0,
0,
0,
0,
0,
0,
0,
0,
0,
0,
0,
0,
0,
0,
0,
0,
0,
0,
0,
0,
0,
0,
0,
0,
0,
0,
0,
0,
0,
0,
0,
0,
0,
0,
0,
0,
0,
0,
0,
0,
0,
0,
0,
0,
0,
0,
0,
0,
0,
1,
0,
0,
0,
0,
0,
0,
0,
0,
0,
0,
0,
0,
0,
0,
0,
0,
0,
0,
0,
0,
0,
0,
0,
0,
0,
0,
0,
0,
0,
0,
0,
0,
0,
0,
0,
0,
0,
0,
0,
0,
0,
0,
0,
0,
0,
0,
0,
0,
0,
0,
0,
0,
0,
0,
0,
0,
0,
0,
0,
0,
#ENDOFDATA   :

File: SPI MM1 Barite[2][4].msa
#FORMAT      : EMSA/MAS Spectral Data File
#VERSION     : 1.0
#TITLE       : SPI MM1 Barite[2][all]
#DATE        : 11-MAR-2025
#TIME        : 13:27
#OWNER       : Unknown
#NPOINTS     : 4096
#NCOLUMNS    : 1
#XUNITS      : eV
#YUNITS      : counts
#DATATYPE    : Y
#XPERCHAN    : 9.99778
#OFFSET      : 1.69135
#BEAMKV      : 20
#SIGNALTYPE  : EDS
#ELEVANGLE   : 35
#AZIMANGLE   : 0
#LIVETIME    : 239.894
#REALTIME    : 258.916
#PROBECUR    : 1.02853
#TAUWIND     : 0
#TDEADLYR    : 0
#TACTLYR     : 0.045
#TALWIND     : 0.025
#CHOFFSET    : 0.0
#XLABEL      : Energy (eV)
#YLABEL      : Counts
#XPOSITION   : -0.41482
#YPOSITION   : -5.05928
#ZPOSITION   : 30.9284
#EDSDET      : SD
##SPECIMEN   : SPI MM1 Barite[2][all]
##DET_HASH   : 12273538-fd48-a23f-0a19-f1e6fa85caef
##CALIB_HASH : 6abaa72c-aa41-8738-0be9-f592914732f3
##WORKING    : 15.0 mm
##DET_NAME   : EDAX All
##DET_MODE   : MediumLE
#SPECTRUM    :
30,
1034,
14098,
8120,
55252,
5962,
5339,
5900,
4236,
4367,
4729,
5353,
5687,
6288,
5508,
5771,
28080,
24244,
7141,
5180,
4956,
4782,
4965,
4679,
4624,
4521,
4414,
4430,
6479,
4661,
4282,
9420,
82881,
5073,
19261,
25670,
6117,
15832,
3242,
4984,
5155,
3933,
3406,
2643,
2382,
2360,
2503,
2205,
2280,
2157,
2041,
2061,
1999,
2022,
1894,
1818,
1778,
1791,
1801,
1668,
1668,
1687,
1580,
1542,
1530,
1449,
1455,
1401,
1362,
1344,
1193,
1183,
1182,
1141,
1187,
1013,
1083,
1012,
1000,
963,
961,
887,
827,
804,
873,
756,
750,
716,
676,
698,
650,
610,
564,
583,
530,
533,
491,
495,
453,
469,
429,
401,
368,
353,
379,
324,
299,
309,
260,
275,
250,
207,
245,
191,
225,
189,
188,
166,
174,
172,
140,
118,
139,
131,
101,
108,
88,
84,
72,
77,
62,
61,
55,
57,
34,
27,
44,
24,
21,
10,
14,
10,
4,
2,
0,
1,
0,
1,
1,
1,
1,
1,
0,
2,
0,
1,
0,
2,
0,
2,
0,
1,
1,
0,
1,
2,
0,
2,
0,
0,
0,
0,
1,
1,
0,
0,
0,
0,
0,
0,
0,
0,
0,
1,
0,
2,
0,
0,
0,
0,
0,
0,
0,
0,
0,
0,
0,
0,
0,
0,
0,
0,
0,
0,
0,
0,
0,
0,
0,
0,
0,
0,
0,
0,
0,
0,
0,
0,
0,
0,
0,
0,
0,
0,
0,
0,
0,
0,
0,
0,
0,
0,
0,
0,
0,
0,
0,
0,
0,
0,
0,
0,
0,
0,
0,
0,
0,
0,
0,
0,
0,
0,
0,
0,
0,
0,
0,
0,
0,
0,
0,
0,
0,
0,
0,
0,
0,
0,
0,
0,
0,
0,
0,
0,
0,
0,
0,
0,
0,
0,
0,
0,
0,
0,
0,
0,
0,
0,
0,
0,
0,
0,
0,
0,
#ENDOFDATA   :

File: SPI MM1 Barite[3][4].msa
#FORMAT      : EMSA/MAS Spectral Data File
#VERSION     : 1.0
#TITLE       : SPI MM1 Barite[3][all]
#DATE        : 11-MAR-2025
#TIME        : 13:29
#OWNER       : Unknown
#NPOINTS     : 4096
#NCOLUMNS    : 1
#XUNITS      : eV
#YUNITS      : counts
#DATATYPE    : Y
#XPERCHAN    : 9.99778
#OFFSET      : 1.69135
#BEAMKV      : 20
#SIGNALTYPE  : EDS
#ELEVANGLE   : 35
#AZIMANGLE   : 0
#LIVETIME    : 239.869
#REALTIME    : 258.917
#PROBECUR    : 1.02853
#TAUWIND     : 0
#TDEADLYR    : 0
#TACTLYR     : 0.045
#TALWIND     : 0.025
#CHOFFSET    : 0.0
#XLABEL      : Energy (eV)
#YLABEL      : Counts
#XPOSITION   : -0.37308
#YPOSITION   : -4.94878
#ZPOSITION   : 30.9284
#EDSDET      : SD
##SPECIMEN   : SPI MM1 Barite[3][all]
##DET_HASH   : 12273538-fd48-a23f-0a19-f1e6fa85caef
##CALIB_HASH : 6abaa72c-aa41-8738-0be9-f592914732f3
##WORKING    : 15.0 mm
##DET_NAME   : EDAX All
##DET_MODE   : MediumLE
#SPECTRUM    :
24,
1038,
13575,
8125,
55665,
5981,
5255,
6164,
4217,
4352,
4702,
5246,
5690,
6472,
5543,
5704,
28026,
24302,
7128,
5228,
5206,
4809,
5106,
4708,
4596,
4605,
4391,
4431,
6611,
4473,
4245,
9155,
83462,
5041,
18947,
26294,
5835,
15990,
3272,
4985,
5132,
3891,
3265,
2596,
2337,
2399,
2486,
2197,
2124,
2176,
2024,
2114,
1964,
2116,
2002,
1858,
1821,
1799,
1687,
1747,
1576,
1611,
1568,
1544,
1491,
1427,
1408,
1365,
1408,
1372,
1271,
1226,
1181,
1145,
1094,
1032,
1064,
1034,
1003,
939,
896,
875,
890,
838,
789,
815,
786,
723,
719,
703,
665,
593,
551,
567,
559,
536,
502,
486,
439,
451,
420,
407,
389,
373,
321,
324,
338,
275,
283,
260,
244,
230,
229,
239,
199,
180,
181,
148,
181,
151,
138,
152,
137,
120,
91,
114,
95,
87,
61,
66,
53,
57,
59,
51,
40,
34,
25,
22,
31,
17,
11,
8,
6,
2,
2,
0,
1,
1,
2,
1,
1,
1,
1,
1,
3,
2,
2,
2,
0,
1,
0,
1,
0,
1,
1,
0,
0,
0,
0,
0,
1,
0,
0,
0,
0,
0,
0,
1,
0,
0,
0,
0,
0,
0,
0,
0,
0,
0,
0,
0,
0,
0,
0,
0,
0,
0,
0,
0,
0,
0,
0,
0,
0,
0,
1,
0,
0,
0,
0,
0,
0,
0,
1,
0,
0,
0,
0,
0,
0,
0,
0,
0,
0,
0,
0,
0,
0,
0,
0,
0,
0,
0,
0,
0,
0,
0,
0,
0,
0,
0,
0,
0,
0,
0,
0,
0,
0,
0,
0,
0,
0,
0,
0,
0,
0,
0,
0,
0,
0,
0,
0,
0,
0,
0,
0,
0,
0,
0,
0,
0,
0,
0,
0,
0,
0,
0,
0,
0,
0,
0,
0,
0,
0,
0,
0,
0,
0,
0,
0,
0,
0,
0,
0,
0,
#ENDOFDATA   :

File: SPI MM1 Barite[5][4].msa
#FORMAT      : EMSA/MAS Spectral Data File
#VERSION     : 1.0
#TITLE       : SPI MM1 Barite[5][all]
#DATE        : 11-MAR-2025
#TIME        : 13:31
#OWNER       : Unknown
#NPOINTS     : 4096
#NCOLUMNS    : 1
#XUNITS      : eV
#YUNITS      : counts
#DATATYPE    : Y
#XPERCHAN    : 9.99778
#OFFSET      : 1.69135
#BEAMKV      : 20
#SIGNALTYPE  : EDS
#ELEVANGLE   : 35
#AZIMANGLE   : 0
#LIVETIME    : 239.8755
#REALTIME    : 258.922
#PROBECUR    : 1.02853
#TAUWIND     : 0
#TDEADLYR    : 0
#TACTLYR     : 0.045
#TALWIND     : 0.025
#CHOFFSET    : 0.0
#XLABEL      : Energy (eV)
#YLABEL      : Counts
#XPOSITION   : -0.394
#YPOSITION   : -5.07933
#ZPOSITION   : 30.9284
#EDSDET      : SD
##SPECIMEN   : SPI MM1 Barite[5][all]
##DET_HASH   : 12273538-fd48-a23f-0a19-f1e6fa85caef
##CALIB_HASH : 6abaa72c-aa41-8738-0be9-f592914732f3
##WORKING    : 15.0 mm
##DET_NAME   : EDAX All
##DET_MODE   : MediumLE
#SPECTRUM    :
26,
1036,
13778,
8151,
55642,
6097,
5307,
6018,
4418,
4272,
4726,
5288,
5715,
6358,
5527,
5677,
27865,
24632,
7086,
5165,
5200,
4893,
5065,
4818,
4744,
4439,
4355,
4490,
6662,
4619,
4132,
9380,
82840,
4994,
19008,
25929,
6186,
15909,
3205,
4986,
5058,
3857,
3258,
2698,
2311,
2261,
2611,
2235,
2229,
2135,
1999,
2088,
2015,
2165,
1864,
1903,
1757,
1823,
1709,
1723,
1676,
1637,
1542,
1511,
1507,
1483,
1406,
1332,
1365,
1337,
1286,
1270,
1236,
1128,
1123,
1077,
1059,
991,
977,
966,
953,
944,
819,
858,
813,
790,
746,
755,
724,
663,
633,
614,
567,
578,
549,
500,
495,
456,
453,
468,
403,
457,
400,
369,
370,
320,
312,
312,
297,
276,
259,
251,
250,
217,
196,
198,
160,
149,
168,
164,
154,
131,
128,
110,
101,
82,
106,
90,
73,
79,
80,
56,
49,
44,
40,
34,
25,
29,
25,
24,
12,
8,
3,
1,
2,
3,
0,
6,
5,
2,
0,
3,
1,
3,
1,
1,
1,
0,
0,
1,
0,
0,
1,
0,
1,
0,
0,
0,
0,
0,
0,
1,
0,
0,
1,
0,
0,
0,
1,
0,
0,
0,
0,
0,
0,
0,
0,
1,
0,
0,
0,
0,
0,
0,
0,
0,
0,
0,
0,
0,
0,
0,
0,
0,
0,
0,
0,
0,
0,
0,
0,
0,
0,
0,
0,
0,
0,
0,
0,
0,
0,
0,
0,
0,
0,
0,
0,
0,
0,
0,
0,
1,
0,
0,
0,
0,
0,
0,
0,
0,
0,
0,
0,
0,
0,
0,
0,
0,
0,
0,
0,
0,
0,
0,
0,
0,
0,
0,
0,
0,
0,
0,
0,
0,
0,
0,
0,
0,
0,
0,
0,
0,
0,
0,
0,
0,
0,
0,
0,
0,
0,
0,
0,
0,
0,
0,
0,
0,
0,
0,
0,
0,
0,
0,
#ENDOFDATA   :

File: SPI MM1 Barite[7][4].msa
#FORMAT      : EMSA/MAS Spectral Data File
#VERSION     : 1.0
#TITLE       : SPI MM1 Barite[7][all]
#DATE        : 11-MAR-2025
#TIME        : 13:33
#OWNER       : Unknown
#NPOINTS     : 4096
#NCOLUMNS    : 1
#XUNITS      : eV
#YUNITS      : counts
#DATATYPE    : Y
#XPERCHAN    : 9.99778
#OFFSET      : 1.69135
#BEAMKV      : 20
#SIGNALTYPE  : EDS
#ELEVANGLE   : 35
#AZIMANGLE   : 0
#LIVETIME    : 239.872
#REALTIME    : 258.915
#PROBECUR    : 1.02853
#TAUWIND     : 0
#TDEADLYR    : 0
#TACTLYR     : 0.045
#TALWIND     : 0.025
#CHOFFSET    : 0.0
#XLABEL      : Energy (eV)
#YLABEL      : Counts
#XPOSITION   : -0.3737
#YPOSITION   : -5.07894
#ZPOSITION   : 30.9284
#EDSDET      : SD
##SPECIMEN   : SPI MM1 Barite[7][all]
##DET_HASH   : 12273538-fd48-a23f-0a19-f1e6fa85caef
##CALIB_HASH : 6abaa72c-aa41-8738-0be9-f592914732f3
##WORKING    : 15.0 mm
##DET_NAME   : EDAX All
##DET_MODE   : MediumLE
#SPECTRUM    :
24,
1009,
13934,
8030,
55244,
6085,
5165,
5921,
4337,
4404,
4673,
5313,
5615,
6173,
5510,
5704,
28023,
24061,
7248,
5219,
5264,
4858,
5117,
4763,
4750,
4455,
4420,
4389,
6368,
4561,
4124,
9346,
83471,
5003,
18957,
25937,
6071,
15812,
3338,
4947,
5200,
3942,
3452,
2676,
2320,
2448,
2515,
2210,
2105,
2238,
2084,
2123,
2031,
2116,
1929,
1863,
1821,
1755,
1736,
1752,
1612,
1621,
1531,
1555,
1525,
1411,
1420,
1409,
1329,
1341,
1321,
1267,
1176,
1173,
1087,
1054,
1053,
1038,
978,
950,
935,
935,
861,
809,
816,
743,
717,
707,
670,
704,
646,
621,
582,
571,
560,
535,
482,
464,
457,
446,
414,
385,
372,
354,
378,
313,
317,
284,
258,
263,
253,
244,
223,
238,
230,
186,
185,
173,
143,
170,
145,
111,
135,
119,
109,
113,
87,
78,
85,
73,
63,
70,
47,
37,
35,
30,
35,
26,
24,
12,
10,
10,
3,
2,
3,
1,
0,
1,
0,
0,
0,
1,
0,
1,
2,
0,
0,
1,
2,
1,
0,
0,
0,
0,
0,
1,
0,
0,
0,
0,
0,
0,
0,
0,
0,
0,
0,
0,
0,
1,
0,
1,
0,
0,
0,
0,
0,
0,
0,
0,
0,
0,
0,
0,
0,
0,
0,
0,
0,
0,
0,
0,
0,
0,
0,
0,
0,
0,
0,
0,
0,
0,
0,
0,
0,
0,
0,
0,
0,
0,
1,
0,
0,
0,
0,
0,
0,
0,
0,
0,
0,
0,
0,
0,
0,
0,
0,
0,
0,
0,
0,
0,
0,
0,
0,
0,
0,
0,
0,
0,
0,
0,
0,
0,
0,
0,
0,
0,
0,
0,
0,
0,
0,
0,
0,
0,
0,
0,
0,
0,
0,
0,
0,
0,
0,
0,
0,
0,
0,
0,
0,
0,
0,
0,
0,
0,
0,
0,
0,
0,
0,
0,
0,
0,
#ENDOFDATA   :

File: SPI MM1 Benitoite[2][4].msa
#FORMAT      : EMSA/MAS Spectral Data File
#VERSION     : 1.0
#TITLE       : SPI MM1 Benitoite[2][all]
#DATE        : 11-MAR-2025
#TIME        : 13:18
#OWNER       : Unknown
#NPOINTS     : 4096
#NCOLUMNS    : 1
#XUNITS      : eV
#YUNITS      : counts
#DATATYPE    : Y
#XPERCHAN    : 9.99778
#OFFSET      : 1.69135
#BEAMKV      : 20
#SIGNALTYPE  : EDS
#ELEVANGLE   : 35
#AZIMANGLE   : 0
#LIVETIME    : 239.857
#REALTIME    : 256.75
#PROBECUR    : 1.02699
#TAUWIND     : 0
#TDEADLYR    : 0
#TACTLYR     : 0.045
#TALWIND     : 0.025
#CHOFFSET    : 0.0
#XLABEL      : Energy (eV)
#YLABEL      : Counts
#XPOSITION   : -3.21888
#YPOSITION   : -4.9419
#ZPOSITION   : 30.9284
#EDSDET      : SD
##SPECIMEN   : SPI MM1 Benitoite[2][all]
##D2STDCMP   : Benitoite,(O:34.828),(Si:20.3791),(Ti:11.5776),(Ba:33.2153)
##DET_HASH   : 12273538-fd48-a23f-0a19-f1e6fa85caef
##CALIB_HASH : 6abaa72c-aa41-8738-0be9-f592914732f3
##WORKING    : 15.0 mm
##DET_NAME   : EDAX All
##DET_MODE   : MediumLE
#SPECTRUM    :
25,
247,
11365,
12189,
44582,
3593,
3977,
4795,
3945,
4204,
4719,
5304,
46428,
23346,
3927,
3865,
4255,
4006,
4052,
4343,
4248,
3833,
3989,
3811,
3745,
3739,
3468,
3417,
4507,
3513,
3066,
6268,
80815,
7153,
11226,
19295,
4684,
8991,
2395,
3417,
3268,
2678,
2392,
2022,
1774,
1947,
1916,
1693,
1606,
1517,
1657,
1551,
1482,
1556,
1439,
1349,
1355,
1284,
1245,
1197,
1162,
1159,
1133,
1102,
1088,
1050,
1083,
991,
912,
965,
850,
888,
861,
866,
790,
760,
794,
760,
639,
649,
628,
584,
600,
557,
546,
570,
519,
502,
470,
474,
423,
414,
381,
387,
397,
384,
366,
322,
300,
309,
279,
262,
259,
251,
214,
220,
210,
183,
180,
175,
159,
167,
159,
145,
129,
123,
121,
117,
91,
86,
92,
78,
83,
70,
74,
75,
56,
39,
47,
43,
34,
35,
29,
29,
28,
22,
15,
20,
13,
7,
10,
6,
3,
1,
1,
1,
0,
0,
1,
0,
0,
0,
0,
0,
0,
1,
0,
0,
0,
0,
1,
0,
1,
0,
0,
0,
0,
0,
0,
0,
0,
0,
0,
0,
1,
0,
0,
0,
0,
0,
0,
0,
0,
0,
0,
0,
0,
0,
0,
0,
0,
0,
0,
0,
1,
0,
0,
0,
0,
0,
0,
0,
0,
0,
0,
0,
0,
0,
0,
0,
0,
0,
0,
0,
0,
0,
0,
0,
0,
0,
0,
0,
0,
0,
0,
0,
0,
0,
0,
0,
0,
0,
0,
0,
0,
0,
0,
0,
0,
0,
0,
0,
0,
0,
0,
0,
0,
0,
0,
0,
0,
0,
0,
0,
0,
0,
0,
0,
0,
0,
0,
0,
0,
0,
0,
0,
0,
0,
0,
0,
0,
0,
0,
0,
0,
0,
0,
0,
0,
0,
0,
0,
0,
0,
0,
0,
0,
0,
0,
0,
0,
0,
0,
0,
#ENDOFDATA   :

File: SPI MM1 Benitoite[3][4].msa
#FORMAT      : EMSA/MAS Spectral Data File
#VERSION     : 1.0
#TITLE       : SPI MM1 Benitoite[3][all]
#DATE        : 11-MAR-2025
#TIME        : 13:19
#OWNER       : Unknown
#NPOINTS     : 4096
#NCOLUMNS    : 1
#XUNITS      : eV
#YUNITS      : counts
#DATATYPE    : Y
#XPERCHAN    : 9.99778
#OFFSET      : 1.69135
#BEAMKV      : 20
#SIGNALTYPE  : EDS
#ELEVANGLE   : 35
#AZIMANGLE   : 0
#LIVETIME    : 239.857
#REALTIME    : 256.742
#PROBECUR    : 1.02853
#TAUWIND     : 0
#TDEADLYR    : 0
#TACTLYR     : 0.045
#TALWIND     : 0.025
#CHOFFSET    : 0.0
#XLABEL      : Energy (eV)
#YLABEL      : Counts
#XPOSITION   : -3.24748
#YPOSITION   : -4.89207
#ZPOSITION   : 30.9284
#EDSDET      : SD
##SPECIMEN   : SPI MM1 Benitoite[3][all]
##D2STDCMP   : Benitoite,(O:34.828),(Si:20.3791),(Ti:11.5776),(Ba:33.2153)
##DET_HASH   : 12273538-fd48-a23f-0a19-f1e6fa85caef
##CALIB_HASH : 6abaa72c-aa41-8738-0be9-f592914732f3
##WORKING    : 15.0 mm
##DET_NAME   : EDAX All
##DET_MODE   : MediumLE
#SPECTRUM    :
17,
259,
11463,
12098,
44261,
3680,
3921,
4799,
3941,
4099,
4742,
5482,
46274,
23384,
3810,
3992,
4305,
4061,
4139,
4149,
4241,
3885,
3959,
3729,
3705,
3728,
3463,
3379,
4631,
3511,
3311,
6369,
80663,
7150,
11205,
19346,
4687,
8983,
2299,
3354,
3344,
2709,
2406,
1968,
1884,
1912,
1939,
1714,
1639,
1565,
1564,
1546,
1436,
1493,
1424,
1400,
1316,
1292,
1267,
1286,
1206,
1166,
1014,
1092,
1140,
1033,
1014,
1020,
970,
964,
882,
869,
877,
839,
800,
795,
745,
748,
699,
633,
643,
600,
567,
629,
566,
576,
548,
476,
463,
445,
476,
413,
386,
342,
395,
398,
339,
325,
310,
319,
272,
241,
224,
223,
237,
225,
225,
220,
176,
178,
178,
137,
153,
126,
157,
118,
141,
114,
100,
99,
86,
67,
83,
64,
73,
54,
52,
50,
55,
41,
50,
38,
29,
27,
29,
24,
19,
18,
18,
11,
7,
3,
0,
2,
0,
1,
1,
0,
0,
1,
0,
1,
2,
0,
1,
0,
1,
1,
2,
1,
1,
1,
0,
0,
0,
0,
0,
0,
1,
0,
1,
0,
0,
0,
1,
0,
0,
1,
0,
0,
0,
1,
0,
0,
0,
0,
0,
0,
0,
0,
0,
0,
0,
0,
0,
0,
0,
0,
0,
0,
0,
0,
0,
0,
0,
1,
0,
0,
0,
0,
0,
0,
0,
0,
0,
0,
0,
0,
0,
0,
0,
0,
0,
0,
1,
0,
0,
0,
0,
0,
0,
0,
0,
0,
0,
0,
0,
0,
0,
0,
0,
0,
0,
0,
0,
0,
0,
0,
0,
0,
0,
0,
0,
0,
0,
0,
0,
0,
0,
0,
0,
0,
0,
0,
0,
0,
0,
0,
0,
0,
0,
0,
0,
0,
0,
0,
0,
0,
0,
0,
0,
0,
0,
0,
0,
0,
0,
0,
0,
0,
0,
0,
0,
0,
#ENDOFDATA   :