Folder: spex_quant/N132962/Quantification/MMM1 (part 5)

File: SPI MM1 Chromite[7][4].msa
#FORMAT      : EMSA/MAS Spectral Data File
#VERSION     : 1.0
#TITLE       : SPI MM1dup Chromite[7][all]
#DATE        : 12-MAR-2025
#TIME        : 14:17
#OWNER       : Unknown
#NPOINTS     : 4096
#NCOLUMNS    : 1
#XUNITS      : eV
#YUNITS      : counts
#DATATYPE    : Y
#XPERCHAN    : 9.99778
#OFFSET      : 1.69135
#BEAMKV      : 20
#SIGNALTYPE  : EDS
#ELEVANGLE   : 35
#AZIMANGLE   : 0
#LIVETIME    : 239.926
#REALTIME    : 256.306
#PROBECUR    : 1.02867
#TAUWIND     : 0
#TDEADLYR    : 0
#TACTLYR     : 0.045
#TALWIND     : 0.025
#CHOFFSET    : 0.0
#XLABEL      : Energy (eV)
#YLABEL      : Counts
#XPOSITION   : 4.2085
#YPOSITION   : -0.2618
#ZPOSITION   : 31.03608
#EDSDET      : SD
##SPECIMEN   : SPI MM1dup Chromite[7][all]
##DET_HASH   : 12273538-fd48-a23f-0a19-f1e6fa85caef
##CALIB_HASH : 6abaa72c-aa41-8738-0be9-f592914732f3
##WORKING    : 15.0 mm
##DET_NAME   : EDAX All
##DET_MODE   : MediumLE
#SPECTRUM    :
21,
231,
9752,
10364,
82316,
7425,
2514,
2864,
3716,
57956,
7900,
27223,
3642,
3698,
3424,
3398,
3356,
3336,
3294,
3324,
3198,
3217,
3021,
2874,
2904,
2848,
3096,
2637,
2440,
2381,
2426,
2196,
2350,
2211,
2026,
2153,
1938,
2069,
21888,
57827,
2001,
1809,
7543,
5974,
1317,
5529,
14922,
1362,
1222,
1300,
2663,
1906,
1035,
1147,
1072,
951,
917,
889,
858,
836,
724,
767,
790,
754,
706,
704,
675,
635,
712,
588,
590,
570,
521,
547,
468,
511,
492,
499,
451,
396,
374,
418,
357,
378,
374,
346,
349,
344,
291,
283,
250,
277,
234,
246,
209,
215,
203,
184,
170,
179,
172,
153,
136,
128,
154,
133,
119,
124,
111,
97,
95,
93,
87,
101,
65,
75,
58,
56,
60,
59,
45,
42,
47,
41,
32,
38,
22,
29,
27,
27,
28,
24,
18,
13,
9,
12,
12,
6,
7,
6,
8,
3,
3,
0,
0,
1,
0,
0,
0,
0,
1,
1,
0,
0,
0,
0,
1,
1,
0,
0,
1,
0,
0,
1,
0,
0,
1,
0,
0,
0,
0,
0,
0,
0,
1,
0,
0,
0,
0,
0,
0,
0,
0,
0,
0,
0,
0,
0,
0,
0,
0,
0,
0,
0,
0,
0,
0,
0,
0,
0,
0,
0,
0,
0,
0,
0,
0,
0,
0,
0,
0,
0,
0,
0,
0,
0,
0,
0,
0,
0,
0,
0,
0,
0,
0,
0,
0,
0,
0,
0,
0,
0,
0,
0,
0,
0,
0,
0,
0,
0,
0,
0,
0,
0,
0,
0,
0,
0,
0,
0,
0,
0,
0,
0,
0,
0,
0,
0,
0,
0,
0,
0,
0,
0,
0,
0,
0,
0,
0,
0,
0,
0,
0,
0,
0,
0,
0,
0,
0,
0,
0,
0,
0,
0,
0,
0,
0,
0,
0,
0,
0,
0,
0,
0,
#ENDOFDATA   :

File: SPI MM1 Crocoite[0][4].msa
#FORMAT      : EMSA/MAS Spectral Data File
#VERSION     : 1.0
#TITLE       : SPI MM1dup Crocoite[0][all]
#DATE        : 12-MAR-2025
#TIME        : 13:49
#OWNER       : Unknown
#NPOINTS     : 4096
#NCOLUMNS    : 1
#XUNITS      : eV
#YUNITS      : counts
#DATATYPE    : Y
#XPERCHAN    : 9.99778
#OFFSET      : 1.69135
#BEAMKV      : 20
#SIGNALTYPE  : EDS
#ELEVANGLE   : 35
#AZIMANGLE   : 0
#LIVETIME    : 239.894
#REALTIME    : 262.051
#PROBECUR    : 1.02627
#TAUWIND     : 0
#TDEADLYR    : 0
#TACTLYR     : 0.045
#TALWIND     : 0.025
#CHOFFSET    : 0.0
#XLABEL      : Energy (eV)
#YLABEL      : Counts
#XPOSITION   : -1.17008
#YPOSITION   : -0.64091
#ZPOSITION   : 31.03608
#EDSDET      : SD
##SPECIMEN   : SPI MM1dup Crocoite[0][all]
##DET_HASH   : 12273538-fd48-a23f-0a19-f1e6fa85caef
##CALIB_HASH : 6abaa72c-aa41-8738-0be9-f592914732f3
##WORKING    : 15.0 mm
##DET_NAME   : EDAX All
##DET_MODE   : MediumLE
#SPECTRUM    :
26,
752,
17960,
6509,
29915,
6357,
5393,
5863,
6551,
7241,
7914,
8443,
8947,
18132,
8579,
8839,
17487,
138709,
23372,
11266,
4839,
5477,
6649,
4979,
4806,
4907,
4832,
4821,
4563,
4576,
4544,
4326,
4459,
4366,
4498,
4380,
4097,
4315,
14495,
32812,
4048,
3868,
6920,
6147,
3333,
3446,
3640,
3166,
3055,
3099,
3116,
2928,
2779,
2992,
2919,
2750,
2729,
2590,
2568,
2490,
2433,
2319,
2292,
2263,
2212,
2397,
2382,
2024,
1988,
1944,
1907,
1841,
1708,
1813,
2559,
9874,
5466,
1648,
1532,
1400,
1390,
1332,
1312,
1251,
1215,
1211,
1194,
1241,
1237,
1657,
4517,
1969,
1086,
1110,
782,
781,
749,
718,
740,
701,
612,
591,
548,
579,
525,
738,
686,
515,
504,
442,
391,
416,
340,
346,
345,
314,
289,
284,
283,
225,
225,
209,
199,
157,
182,
173,
162,
152,
155,
140,
128,
85,
91,
83,
64,
72,
49,
52,
31,
22,
21,
15,
10,
7,
1,
3,
4,
2,
1,
2,
4,
2,
2,
3,
2,
4,
0,
1,
1,
3,
1,
1,
1,
1,
2,
4,
4,
3,
3,
0,
1,
2,
1,
0,
1,
3,
1,
1,
1,
1,
0,
2,
1,
4,
0,
1,
0,
1,
0,
1,
0,
3,
0,
0,
1,
0,
0,
1,
0,
0,
1,
1,
0,
1,
0,
1,
0,
0,
0,
0,
0,
1,
0,
0,
0,
0,
1,
0,
0,
0,
0,
1,
0,
0,
0,
0,
0,
0,
0,
0,
0,
0,
0,
0,
0,
0,
0,
0,
0,
0,
0,
0,
0,
0,
0,
0,
0,
0,
0,
0,
0,
0,
0,
0,
0,
0,
0,
0,
0,
0,
0,
0,
0,
0,
0,
0,
0,
0,
0,
0,
0,
0,
0,
0,
0,
0,
0,
0,
0,
0,
0,
0,
0,
0,
0,
0,
0,
0,
0,
0,
0,
0,
0,
0,
#ENDOFDATA   :

File: SPI MM1 Crocoite[2][4].msa
#FORMAT      : EMSA/MAS Spectral Data File
#VERSION     : 1.0
#TITLE       : SPI MM1dup Crocoite[2][all]
#DATE        : 12-MAR-2025
#TIME        : 13:52
#OWNER       : Unknown
#NPOINTS     : 4096
#NCOLUMNS    : 1
#XUNITS      : eV
#YUNITS      : counts
#DATATYPE    : Y
#XPERCHAN    : 9.99778
#OFFSET      : 1.69135
#BEAMKV      : 20
#SIGNALTYPE  : EDS
#ELEVANGLE   : 35
#AZIMANGLE   : 0
#LIVETIME    : 239.851
#REALTIME    : 261.99
#PROBECUR    : 1.02627
#TAUWIND     : 0
#TDEADLYR    : 0
#TACTLYR     : 0.045
#TALWIND     : 0.025
#CHOFFSET    : 0.0
#XLABEL      : Energy (eV)
#YLABEL      : Counts
#XPOSITION   : -1.18985
#YPOSITION   : -0.60256
#ZPOSITION   : 31.03608
#EDSDET      : SD
##SPECIMEN   : SPI MM1dup Crocoite[2][all]
##DET_HASH   : 12273538-fd48-a23f-0a19-f1e6fa85caef
##CALIB_HASH : 6abaa72c-aa41-8738-0be9-f592914732f3
##WORKING    : 15.0 mm
##DET_NAME   : EDAX All
##DET_MODE   : MediumLE
#SPECTRUM    :
22,
741,
17736,
6544,
29895,
6365,
5395,
5889,
6415,
7206,
7846,
8319,
8983,
18220,
8773,
8891,
17417,
138417,
23284,
11220,
5076,
5371,
6736,
5053,
4662,
4936,
4814,
4702,
4413,
4410,
4492,
4441,
4525,
4400,
4646,
4345,
4205,
4277,
14395,
32477,
4151,
3934,
6960,
5806,
3442,
3476,
3661,
3182,
3167,
3213,
3026,
2909,
2787,
3020,
2844,
2800,
2723,
2534,
2583,
2458,
2479,
2373,
2159,
2324,
2148,
2399,
2540,
2052,
1904,
1978,
1861,
1803,
1768,
1839,
2592,
9833,
5613,
1649,
1470,
1485,
1415,
1451,
1362,
1252,
1219,
1134,
1193,
1302,
1164,
1693,
4637,
1914,
1100,
1092,
842,
734,
763,
697,
710,
645,
638,
574,
611,
543,
516,
758,
644,
491,
506,
435,
419,
372,
348,
354,
293,
311,
296,
258,
255,
261,
241,
181,
191,
197,
157,
169,
163,
139,
113,
114,
113,
93,
91,
71,
66,
54,
62,
39,
39,
35,
22,
14,
5,
3,
6,
4,
8,
1,
2,
1,
6,
1,
5,
1,
3,
0,
1,
4,
1,
0,
2,
0,
2,
1,
0,
1,
0,
2,
3,
2,
1,
0,
0,
0,
1,
0,
0,
1,
1,
1,
0,
1,
0,
0,
2,
1,
2,
0,
1,
0,
1,
0,
1,
1,
1,
0,
1,
0,
0,
0,
0,
0,
1,
0,
0,
0,
0,
0,
0,
1,
1,
0,
0,
0,
0,
1,
0,
0,
0,
0,
0,
0,
0,
0,
0,
0,
0,
0,
0,
0,
0,
0,
0,
0,
0,
0,
0,
0,
0,
0,
0,
0,
0,
0,
0,
0,
0,
1,
0,
0,
0,
0,
0,
0,
0,
0,
0,
0,
0,
0,
0,
0,
0,
0,
0,
0,
0,
0,
0,
0,
0,
0,
0,
0,
0,
0,
0,
0,
0,
0,
0,
0,
0,
0,
0,
0,
0,
0,
0,
0,
0,
0,
0,
0,
#ENDOFDATA   :

File: SPI MM1 Crocoite[3][4].msa
#FORMAT      : EMSA/MAS Spectral Data File
#VERSION     : 1.0
#TITLE       : SPI MM1dup Crocoite[3][all]
#DATE        : 12-MAR-2025
#TIME        : 13:53
#OWNER       : Unknown
#NPOINTS     : 4096
#NCOLUMNS    : 1
#XUNITS      : eV
#YUNITS      : counts
#DATATYPE    : Y
#XPERCHAN    : 9.99778
#OFFSET      : 1.69135
#BEAMKV      : 20
#SIGNALTYPE  : EDS
#ELEVANGLE   : 35
#AZIMANGLE   : 0
#LIVETIME    : 239.977
#REALTIME    : 262.117
#PROBECUR    : 1.02627
#TAUWIND     : 0
#TDEADLYR    : 0
#TACTLYR     : 0.045
#TALWIND     : 0.025
#CHOFFSET    : 0.0
#XLABEL      : Energy (eV)
#YLABEL      : Counts
#XPOSITION   : -1.16505
#YPOSITION   : -0.70781
#ZPOSITION   : 31.03608
#EDSDET      : SD
##SPECIMEN   : SPI MM1dup Crocoite[3][all]
##DET_HASH   : 12273538-fd48-a23f-0a19-f1e6fa85caef
##CALIB_HASH : 6abaa72c-aa41-8738-0be9-f592914732f3
##WORKING    : 15.0 mm
##DET_NAME   : EDAX All
##DET_MODE   : MediumLE
#SPECTRUM    :
25,
783,
18172,
6576,
29908,
6386,
5351,
5916,
6511,
7347,
7952,
8472,
9096,
17933,
8530,
9033,
17369,
138162,
23269,
11261,
5026,
5576,
6817,
5089,
4796,
4796,
4872,
4827,
4499,
4539,
4443,
4459,
4367,
4364,
4470,
4331,
4230,
4208,
14268,
32709,
3994,
3932,
6867,
5980,
3407,
3509,
3623,
3238,
3099,
3016,
3025,
2911,
2970,
2985,
2882,
2817,
2746,
2517,
2604,
2459,
2391,
2364,
2290,
2259,
2206,
2442,
2512,
2065,
1976,
1929,
1889,
1883,
1815,
1694,
2660,
9906,
5722,
1639,
1429,
1447,
1386,
1400,
1314,
1206,
1157,
1198,
1215,
1222,
1198,
1695,
4479,
1967,
1081,
1008,
848,
748,
722,
684,
682,
660,
632,
580,
559,
561,
594,
782,
645,
548,
544,
458,
418,
404,
365,
338,
332,
307,
315,
271,
261,
239,
212,
229,
193,
146,
152,
147,
150,
124,
150,
112,
116,
106,
99,
85,
71,
63,
59,
56,
31,
24,
36,
20,
10,
1,
6,
1,
2,
2,
1,
6,
2,
3,
1,
6,
1,
3,
0,
1,
2,
1,
1,
3,
2,
4,
1,
4,
3,
1,
1,
1,
1,
2,
1,
1,
2,
0,
0,
0,
1,
1,
0,
1,
3,
0,
0,
0,
0,
0,
0,
1,
0,
0,
1,
1,
1,
1,
1,
0,
0,
0,
0,
1,
1,
1,
0,
0,
0,
1,
0,
0,
0,
0,
1,
0,
0,
0,
0,
0,
0,
0,
0,
0,
0,
0,
0,
0,
0,
0,
0,
0,
0,
0,
0,
0,
0,
0,
0,
0,
0,
0,
0,
0,
0,
0,
0,
0,
0,
0,
0,
0,
0,
0,
0,
0,
0,
0,
0,
0,
0,
0,
0,
0,
0,
0,
0,
0,
0,
0,
0,
0,
0,
0,
0,
0,
0,
0,
0,
0,
0,
0,
0,
0,
0,
0,
0,
0,
0,
0,
0,
0,
0,
0,
0,
0,
#ENDOFDATA   :

File: SPI MM1 Crocoite[5][4].msa
#FORMAT      : EMSA/MAS Spectral Data File
#VERSION     : 1.0
#TITLE       : SPI MM1dup Crocoite[5][all]
#DATE        : 12-MAR-2025
#TIME        : 13:55
#OWNER       : Unknown
#NPOINTS     : 4096
#NCOLUMNS    : 1
#XUNITS      : eV
#YUNITS      : counts
#DATATYPE    : Y
#XPERCHAN    : 9.99778
#OFFSET      : 1.69135
#BEAMKV      : 20
#SIGNALTYPE  : EDS
#ELEVANGLE   : 35
#AZIMANGLE   : 0
#LIVETIME    : 239.797
#REALTIME    : 261.936
#PROBECUR    : 1.02627
#TAUWIND     : 0
#TDEADLYR    : 0
#TACTLYR     : 0.045
#TALWIND     : 0.025
#CHOFFSET    : 0.0
#XLABEL      : Energy (eV)
#YLABEL      : Counts
#XPOSITION   : -1.14413
#YPOSITION   : -0.60928
#ZPOSITION   : 31.03608
#EDSDET      : SD
##SPECIMEN   : SPI MM1dup Crocoite[5][all]
##DET_HASH   : 12273538-fd48-a23f-0a19-f1e6fa85caef
##CALIB_HASH : 6abaa72c-aa41-8738-0be9-f592914732f3
##WORKING    : 15.0 mm
##DET_NAME   : EDAX All
##DET_MODE   : MediumLE
#SPECTRUM    :
22,
760,
17674,
6635,
30050,
6374,
5227,
5825,
6620,
7230,
8031,
8510,
9191,
17978,
8367,
8817,
17606,
138971,
23578,
11259,
5047,
5549,
6716,
5129,
4660,
4935,
4835,
4881,
4489,
4406,
4704,
4525,
4354,
4359,
4514,
4302,
4155,
4150,
14619,
32621,
3969,
3805,
6608,
5903,
3484,
3443,
3695,
3199,
3009,
3156,
3042,
3007,
2995,
3012,
2824,
2703,
2718,
2484,
2555,
2464,
2425,
2330,
2302,
2220,
2168,
2352,
2523,
2053,
1962,
1915,
1851,
1788,
1703,
1822,
2560,
9899,
5501,
1606,
1506,
1402,
1378,
1382,
1329,
1321,
1239,
1128,
1273,
1249,
1234,
1731,
4565,
1847,
1057,
1104,
858,
763,
757,
698,
692,
670,
628,
584,
570,
589,
589,
788,
651,
527,
515,
464,
390,
418,
375,
358,
347,
288,
280,
283,
272,
232,
218,
210,
186,
182,
166,
159,
154,
133,
140,
135,
92,
92,
103,
63,
55,
62,
52,
57,
39,
35,
23,
9,
4,
6,
5,
1,
3,
4,
3,
4,
3,
3,
3,
5,
3,
1,
0,
5,
2,
1,
0,
1,
3,
2,
2,
2,
0,
1,
1,
2,
0,
2,
1,
2,
1,
0,
0,
3,
1,
0,
2,
1,
0,
0,
1,
1,
1,
0,
0,
1,
0,
3,
0,
1,
0,
0,
0,
0,
0,
0,
0,
0,
0,
0,
0,
2,
0,
1,
0,
0,
0,
1,
0,
0,
0,
0,
1,
0,
0,
0,
0,
0,
0,
0,
0,
0,
0,
0,
0,
0,
0,
0,
0,
0,
0,
0,
0,
0,
0,
0,
0,
0,
0,
0,
0,
0,
0,
0,
0,
0,
0,
0,
0,
0,
0,
0,
0,
0,
0,
0,
0,
0,
0,
0,
0,
0,
0,
0,
0,
0,
0,
0,
0,
0,
0,
0,
0,
0,
0,
0,
0,
0,
0,
0,
0,
0,
0,
0,
0,
0,
0,
0,
0,
0,
#ENDOFDATA   :

File: SPI MM1 Crocoite[7][4].msa
#FORMAT      : EMSA/MAS Spectral Data File
#VERSION     : 1.0
#TITLE       : SPI MM1dup Crocoite[7][all]
#DATE        : 12-MAR-2025
#TIME        : 13:58
#OWNER       : Unknown
#NPOINTS     : 4096
#NCOLUMNS    : 1
#XUNITS      : eV
#YUNITS      : counts
#DATATYPE    : Y
#XPERCHAN    : 9.99778
#OFFSET      : 1.69135
#BEAMKV      : 20
#SIGNALTYPE  : EDS
#ELEVANGLE   : 35
#AZIMANGLE   : 0
#LIVETIME    : 239.833
#REALTIME    : 261.996
#PROBECUR    : 1.02627
#TAUWIND     : 0
#TDEADLYR    : 0
#TACTLYR     : 0.045
#TALWIND     : 0.025
#CHOFFSET    : 0.0
#XLABEL      : Energy (eV)
#YLABEL      : Counts
#XPOSITION   : -1.14437
#YPOSITION   : -0.63604
#ZPOSITION   : 31.03608
#EDSDET      : SD
##SPECIMEN   : SPI MM1dup Crocoite[7][all]
##DET_HASH   : 12273538-fd48-a23f-0a19-f1e6fa85caef
##CALIB_HASH : 6abaa72c-aa41-8738-0be9-f592914732f3
##WORKING    : 15.0 mm
##DET_NAME   : EDAX All
##DET_MODE   : MediumLE
#SPECTRUM    :
18,
721,
18020,
6587,
30049,
6322,
5318,
5820,
6450,
7352,
8061,
8552,
9126,
18154,
8483,
8985,
17168,
139270,
23533,
11305,
4911,
5357,
6819,
5062,
4751,
4883,
4978,
4730,
4446,
4547,
4572,
4517,
4485,
4449,
4464,
4224,
4222,
4194,
14559,
32569,
3992,
3977,
6976,
6062,
3373,
3486,
3654,
3127,
3176,
3179,
3052,
3012,
2837,
3028,
2967,
2757,
2763,
2615,
2512,
2529,
2465,
2369,
2317,
2320,
2203,
2436,
2439,
2063,
1996,
1857,
1774,
1872,
1728,
1770,
2764,
10102,
5492,
1612,
1538,
1404,
1433,
1392,
1322,
1288,
1180,
1137,
1191,
1240,
1242,
1680,
4597,
1954,
1139,
1098,
864,
776,
752,
704,
688,
654,
607,
586,
560,
571,
532,
750,
679,
514,
515,
453,
424,
363,
354,
343,
310,
291,
279,
249,
239,
231,
234,
231,
216,
181,
181,
148,
166,
145,
143,
134,
104,
100,
91,
79,
56,
67,
51,
49,
36,
30,
21,
14,
12,
7,
2,
3,
5,
7,
3,
2,
6,
2,
3,
1,
1,
0,
2,
1,
2,
2,
0,
2,
1,
2,
2,
4,
0,
0,
3,
0,
0,
1,
3,
1,
0,
0,
1,
0,
0,
1,
0,
1,
1,
0,
0,
0,
0,
2,
1,
0,
1,
1,
0,
0,
0,
0,
2,
1,
1,
0,
0,
0,
0,
0,
0,
0,
0,
0,
0,
0,
0,
0,
1,
0,
0,
0,
0,
1,
0,
0,
0,
0,
0,
0,
0,
0,
0,
0,
0,
0,
0,
0,
0,
0,
0,
0,
0,
0,
0,
0,
0,
0,
0,
0,
0,
0,
0,
0,
1,
0,
0,
0,
1,
0,
0,
0,
0,
0,
0,
0,
0,
0,
0,
0,
0,
0,
0,
0,
0,
0,
0,
0,
0,
0,
0,
0,
0,
0,
0,
0,
0,
0,
0,
0,
0,
0,
0,
0,
0,
0,
0,
0,
0,
0,
#ENDOFDATA   :

File: SPI MM1 Cryolite[0][4].msa
#FORMAT      : EMSA/MAS Spectral Data File
#VERSION     : 1.0
#TITLE       : SPI MM1dup Cryolite[0][all]
#DATE        : 12-MAR-2025
#TIME        : 13:40
#OWNER       : Unknown
#NPOINTS     : 4096
#NCOLUMNS    : 1
#XUNITS      : eV
#YUNITS      : counts
#DATATYPE    : Y
#XPERCHAN    : 9.99778
#OFFSET      : 1.69135
#BEAMKV      : 20
#SIGNALTYPE  : EDS
#ELEVANGLE   : 35
#AZIMANGLE   : 0
#LIVETIME    : 239.944
#REALTIME    : 258.599
#PROBECUR    : 1.02627
#TAUWIND     : 0
#TDEADLYR    : 0
#TACTLYR     : 0.045
#TALWIND     : 0.025
#CHOFFSET    : 0.0
#XLABEL      : Energy (eV)
#YLABEL      : Counts
#XPOSITION   : -3.97776
#YPOSITION   : -0.57432
#ZPOSITION   : 31.03609
#EDSDET      : SD
##SPECIMEN   : SPI MM1dup Cryolite[0][all]
##D2STDCMP   : Cryolite,(F:54.2963),(Na:32.8517),(Al:12.8519)
##DET_HASH   : 12273538-fd48-a23f-0a19-f1e6fa85caef
##CALIB_HASH : 6abaa72c-aa41-8738-0be9-f592914732f3
##WORKING    : 15.0 mm
##DET_NAME   : EDAX All
##DET_MODE   : MediumLE
#SPECTRUM    :
25,
373,
9427,
4300,
13306,
338219,
2596,
39149,
9821,
2348,
7051,
26450,
3238,
2418,
2160,
2746,
2297,
2225,
2462,
2224,
2129,
2089,
2024,
1953,
1864,
1827,
1705,
1674,
1624,
1540,
1543,
1475,
1404,
1339,
1269,
1266,
1265,
1170,
1111,
1074,
1013,
1043,
951,
967,
930,
905,
932,
766,
748,
712,
736,
714,
689,
679,
625,
610,
582,
576,
531,
490,
504,
501,
451,
432,
447,
416,
396,
363,
371,
372,
344,
360,
348,
321,
318,
317,
287,
268,
253,
252,
219,
227,
240,
221,
228,
183,
175,
187,
181,
164,
153,
165,
151,
149,
122,
125,
107,
128,
127,
132,
100,
97,
86,
88,
75,
74,
83,
64,
61,
59,
69,
53,
43,
47,
40,
36,
43,
36,
38,
26,
22,
30,
30,
15,
20,
13,
21,
14,
19,
15,
12,
13,
7,
11,
10,
7,
3,
2,
2,
0,
2,
0,
1,
0,
0,
0,
0,
0,
1,
0,
0,
0,
1,
0,
0,
0,
0,
0,
0,
0,
0,
0,
0,
0,
0,
0,
0,
0,
0,
0,
0,
0,
0,
0,
0,
0,
0,
0,
0,
0,
0,
0,
0,
0,
0,
0,
0,
0,
0,
0,
0,
0,
0,
0,
0,
0,
0,
0,
0,
0,
0,
0,
0,
0,
0,
0,
0,
0,
0,
0,
0,
0,
0,
0,
0,
0,
0,
0,
0,
0,
0,
0,
0,
0,
0,
0,
0,
0,
0,
0,
0,
0,
0,
0,
0,
0,
0,
0,
0,
0,
0,
0,
0,
0,
0,
0,
0,
0,
0,
0,
0,
0,
0,
0,
0,
0,
0,
0,
0,
0,
0,
0,
0,
0,
0,
0,
0,
0,
0,
0,
0,
0,
0,
0,
0,
0,
0,
0,
0,
0,
0,
0,
0,
0,
0,
0,
0,
0,
0,
0,
0,
0,
0,
0,
#ENDOFDATA   :

File: SPI MM1 Cryolite[2][4].msa
#FORMAT      : EMSA/MAS Spectral Data File
#VERSION     : 1.0
#TITLE       : SPI MM1dup Cryolite[2][all]
#DATE        : 12-MAR-2025
#TIME        : 13:42
#OWNER       : Unknown
#NPOINTS     : 4096
#NCOLUMNS    : 1
#XUNITS      : eV
#YUNITS      : counts
#DATATYPE    : Y
#XPERCHAN    : 9.99778
#OFFSET      : 1.69135
#BEAMKV      : 20
#SIGNALTYPE  : EDS
#ELEVANGLE   : 35
#AZIMANGLE   : 0
#LIVETIME    : 240.163
#REALTIME    : 258.665
#PROBECUR    : 1.02627
#TAUWIND     : 0
#TDEADLYR    : 0
#TACTLYR     : 0.045
#TALWIND     : 0.025
#CHOFFSET    : 0.0
#XLABEL      : Energy (eV)
#YLABEL      : Counts
#XPOSITION   : -3.92605
#YPOSITION   : -0.56319
#ZPOSITION   : 31.03608
#EDSDET      : SD
##SPECIMEN   : SPI MM1dup Cryolite[2][all]
##D2STDCMP   : Cryolite,(F:54.2963),(Na:32.8517),(Al:12.8519)
##DET_HASH   : 12273538-fd48-a23f-0a19-f1e6fa85caef
##CALIB_HASH : 6abaa72c-aa41-8738-0be9-f592914732f3
##WORKING    : 15.0 mm
##DET_NAME   : EDAX All
##DET_MODE   : MediumLE
#SPECTRUM    :
19,
360,
9934,
4454,
13462,
332135,
2617,
38747,
9850,
2360,
7170,
26553,
3178,
2431,
2152,
2742,
2391,
2338,
2341,
2295,
2154,
2152,
2049,
1909,
1968,
1860,
1766,
1599,
1558,
1544,
1503,
1407,
1417,
1332,
1288,
1300,
1177,
1151,
1161,
1095,
1043,
1006,
969,
952,
894,
827,
928,
786,
803,
787,
719,
741,
703,
670,
678,
598,
606,
606,
546,
564,
519,
468,
453,
496,
423,
380,
424,
418,
385,
370,
360,
339,
370,
332,
337,
307,
267,
302,
275,
274,
253,
239,
203,
230,
208,
202,
200,
188,
198,
179,
154,
143,
172,
126,
130,
134,
114,
109,
120,
113,
96,
90,
81,
80,
67,
67,
72,
57,
58,
47,
50,
53,
49,
51,
40,
43,
48,
30,
38,
30,
25,
25,
23,
9,
13,
16,
8,
19,
14,
9,
5,
6,
10,
6,
11,
11,
3,
6,
0,
2,
4,
4,
1,
0,
1,
0,
0,
0,
0,
0,
0,
0,
0,
0,
0,
0,
2,
0,
0,
0,
0,
0,
0,
0,
0,
0,
0,
0,
0,
0,
0,
0,
0,
0,
0,
0,
0,
0,
0,
0,
0,
0,
0,
0,
0,
0,
0,
0,
0,
0,
0,
0,
0,
0,
0,
0,
0,
0,
0,
0,
0,
0,
0,
0,
0,
0,
0,
0,
0,
0,
0,
0,
0,
0,
0,
0,
0,
0,
0,
0,
0,
0,
0,
0,
0,
0,
0,
0,
0,
0,
0,
0,
0,
0,
0,
0,
0,
0,
0,
0,
0,
0,
0,
0,
0,
0,
0,
0,
0,
0,
0,
0,
0,
0,
0,
0,
0,
0,
0,
0,
0,
0,
0,
0,
0,
0,
0,
0,
0,
0,
0,
0,
0,
0,
0,
0,
0,
0,
0,
0,
0,
0,
0,
0,
0,
0,
0,
0,
0,
0,
0,
0,
0,
0,
#ENDOFDATA   :

File: SPI MM1 Diopside[2][4].msa
#FORMAT      : EMSA/MAS Spectral Data File
#VERSION     : 1.0
#TITLE       : SPI MM1dup Diopside[2][all]
#DATE        : 12-MAR-2025
#TIME        : 15:38
#OWNER       : Unknown
#NPOINTS     : 4096
#NCOLUMNS    : 1
#XUNITS      : eV
#YUNITS      : counts
#DATATYPE    : Y
#XPERCHAN    : 9.99778
#OFFSET      : 1.69135
#BEAMKV      : 20
#SIGNALTYPE  : EDS
#ELEVANGLE   : 35
#AZIMANGLE   : 0
#LIVETIME    : 240.209
#REALTIME    : 255.598
#PROBECUR    : 1.02695
#TAUWIND     : 0
#TDEADLYR    : 0
#TACTLYR     : 0.045
#TALWIND     : 0.025
#CHOFFSET    : 0.0
#XLABEL      : Energy (eV)
#YLABEL      : Counts
#XPOSITION   : 2.19829
#YPOSITION   : 1.3649
#ZPOSITION   : 31.03608
#EDSDET      : SD
##SPECIMEN   : SPI MM1dup Diopside[2][all]
##D2STDCMP   : Diopside,(O:44.3298),(Mg:11.2237),(Si:25.939),(Ca:18.5075)
##DET_HASH   : 12273538-fd48-a23f-0a19-f1e6fa85caef
##CALIB_HASH : 6abaa72c-aa41-8738-0be9-f592914732f3
##WORKING    : 15.0 mm
##DET_NAME   : EDAX All
##DET_MODE   : MediumLE
#SPECTRUM    :
32,
178,
10462,
4012,
35593,
2551,
2742,
3570,
4505,
80816,
4061,
5498,
63385,
30009,
3380,
2522,
3005,
2642,
2699,
2476,
2572,
2526,
2451,
2419,
2221,
2714,
44277,
15769,
3699,
8358,
1741,
1576,
1540,
1502,
1488,
1481,
1329,
1366,
1296,
1418,
1164,
1154,
1195,
1136,
1082,
1363,
1947,
994,
958,
896,
985,
875,
800,
852,
833,
721,
713,
656,
603,
630,
636,
541,
545,
563,
533,
515,
531,
488,
485,
437,
460,
440,
438,
440,
376,
354,
340,
325,
329,
323,
318,
276,
271,
279,
266,
246,
245,
202,
223,
191,
186,
185,
178,
190,
184,
149,
137,
123,
135,
123,
135,
116,
126,
107,
98,
92,
79,
76,
81,
80,
74,
66,
53,
67,
50,
45,
65,
49,
40,
41,
35,
43,
32,
24,
32,
18,
34,
20,
18,
20,
14,
14,
10,
8,
6,
6,
3,
6,
12,
4,
4,
5,
0,
0,
1,
1,
0,
0,
0,
0,
1,
0,
0,
0,
0,
0,
0,
0,
0,
0,
0,
0,
0,
0,
0,
0,
0,
0,
0,
0,
0,
0,
0,
0,
0,
0,
0,
0,
0,
0,
0,
0,
0,
0,
0,
0,
0,
0,
0,
0,
0,
0,
0,
0,
0,
0,
0,
0,
0,
0,
0,
0,
0,
0,
0,
0,
0,
0,
0,
0,
0,
0,
0,
0,
0,
0,
0,
0,
0,
0,
0,
0,
0,
0,
0,
0,
0,
0,
0,
0,
0,
0,
0,
0,
0,
0,
0,
0,
0,
0,
0,
0,
0,
0,
0,
0,
0,
0,
0,
0,
0,
0,
0,
0,
0,
0,
0,
0,
0,
0,
0,
0,
0,
0,
0,
0,
0,
0,
0,
0,
0,
0,
0,
0,
0,
0,
0,
0,
0,
0,
0,
0,
0,
0,
0,
0,
0,
0,
0,
0,
0,
0,
0,
0,
#ENDOFDATA   :

File: SPI MM1 Dolomite[0][4].msa
#FORMAT      : EMSA/MAS Spectral Data File
#VERSION     : 1.0
#TITLE       : SPI MM1dup Dolomite[0][all]
#DATE        : 12-MAR-2025
#TIME        : 15:45
#OWNER       : Unknown
#NPOINTS     : 4096
#NCOLUMNS    : 1
#XUNITS      : eV
#YUNITS      : counts
#DATATYPE    : Y
#XPERCHAN    : 9.99778
#OFFSET      : 1.69135
#BEAMKV      : 20
#SIGNALTYPE  : EDS
#ELEVANGLE   : 35
#AZIMANGLE   : 0
#LIVETIME    : 239.86
#REALTIME    : 250.734
#PROBECUR    : 1.02695
#TAUWIND     : 0
#TDEADLYR    : 0
#TACTLYR     : 0.045
#TALWIND     : 0.025
#CHOFFSET    : 0.0
#XLABEL      : Energy (eV)
#YLABEL      : Counts
#XPOSITION   : -0.09535
#YPOSITION   : 2.0147
#ZPOSITION   : 31.03608
#EDSDET      : SD
##SPECIMEN   : SPI MM1dup Dolomite[0][all]
##DET_HASH   : 12273538-fd48-a23f-0a19-f1e6fa85caef
##CALIB_HASH : 6abaa72c-aa41-8738-0be9-f592914732f3
##WORKING    : 15.0 mm
##DET_NAME   : EDAX All
##DET_MODE   : MediumLE
#SPECTRUM    :
30,
205,
26672,
3599,
35230,
1555,
2149,
2474,
3593,
85625,
2860,
3171,
3304,
3460,
3935,
2858,
2826,
2785,
2632,
2618,
2409,
2314,
2332,
2229,
2073,
2497,
56194,
19225,
3959,
9603,
1501,
1385,
1316,
1224,
1157,
1218,
1145,
1064,
1106,
1000,
980,
968,
946,
943,
934,
961,
1017,
778,
776,
724,
710,
679,
665,
774,
663,
652,
557,
539,
550,
522,
547,
512,
460,
497,
436,
425,
445,
364,
391,
375,
372,
357,
336,
358,
344,
294,
318,
301,
238,
295,
250,
237,
225,
214,
211,
176,
190,
197,
173,
153,
146,
153,
162,
142,
147,
130,
128,
113,
103,
108,
94,
91,
98,
100,
80,
69,
54,
65,
54,
48,
60,
52,
57,
47,
35,
47,
34,
28,
38,
31,
33,
27,
21,
22,
28,
19,
11,
11,
12,
9,
7,
11,
6,
6,
7,
9,
10,
1,
2,
4,
1,
1,
0,
1,
0,
0,
0,
0,
0,
0,
0,
0,
0,
0,
0,
0,
0,
0,
0,
0,
0,
0,
0,
0,
0,
0,
0,
0,
0,
0,
0,
0,
0,
0,
0,
0,
0,
0,
0,
0,
0,
0,
0,
0,
0,
0,
0,
0,
0,
0,
0,
0,
0,
0,
0,
0,
0,
0,
0,
0,
0,
0,
0,
0,
0,
0,
0,
0,
0,
0,
0,
0,
0,
0,
0,
0,
0,
0,
0,
0,
0,
0,
0,
0,
0,
0,
0,
0,
0,
0,
0,
0,
0,
0,
0,
0,
0,
0,
0,
0,
0,
0,
0,
0,
0,
0,
0,
0,
0,
0,
0,
0,
0,
0,
0,
0,
0,
0,
0,
0,
0,
0,
0,
0,
0,
0,
0,
0,
0,
0,
0,
0,
0,
0,
0,
0,
0,
0,
0,
0,
0,
0,
0,
0,
0,
0,
0,
0,
0,
0,
0,
0,
0,
0,
#ENDOFDATA   :

File: SPI MM1 Dolomite[1][4].msa
#FORMAT      : EMSA/MAS Spectral Data File
#VERSION     : 1.0
#TITLE       : SPI MM1dup Dolomite[1][all]
#DATE        : 12-MAR-2025
#TIME        : 15:46
#OWNER       : Unknown
#NPOINTS     : 4096
#NCOLUMNS    : 1
#XUNITS      : eV
#YUNITS      : counts
#DATATYPE    : Y
#XPERCHAN    : 9.99778
#OFFSET      : 1.69135
#BEAMKV      : 20
#SIGNALTYPE  : EDS
#ELEVANGLE   : 35
#AZIMANGLE   : 0
#LIVETIME    : 239.813
#REALTIME    : 250.663
#PROBECUR    : 1.02695
#TAUWIND     : 0
#TDEADLYR    : 0
#TACTLYR     : 0.045
#TALWIND     : 0.025
#CHOFFSET    : 0.0
#XLABEL      : Energy (eV)
#YLABEL      : Counts
#XPOSITION   : -0.05224
#YPOSITION   : 1.9921
#ZPOSITION   : 31.03608
#EDSDET      : SD
##SPECIMEN   : SPI MM1dup Dolomite[1][all]
##DET_HASH   : 12273538-fd48-a23f-0a19-f1e6fa85caef
##CALIB_HASH : 6abaa72c-aa41-8738-0be9-f592914732f3
##WORKING    : 15.0 mm
##DET_NAME   : EDAX All
##DET_MODE   : MediumLE
#SPECTRUM    :
20,
212,
26977,
3614,
34873,
1721,
1990,
2501,
3568,
85222,
2847,
3017,
3254,
3413,
4003,
2992,
2970,
2711,
2657,
2573,
2495,
2430,
2357,
2226,
2150,
2517,
55559,
19085,
4086,
9546,
1484,
1313,
1246,
1217,
1258,
1287,
1188,
1125,
1052,
1068,
1050,
920,
988,
948,
838,
977,
1039,
792,
809,
777,
796,
766,
709,
711,
679,
626,
624,
557,
558,
553,
511,
447,
481,
467,
437,
427,
403,
424,
374,
375,
353,
361,
346,
302,
331,
300,
307,
270,
282,
237,
239,
246,
224,
212,
212,
202,
201,
153,
168,
155,
167,
153,
145,
146,
150,
123,
110,
107,
104,
121,
100,
108,
96,
94,
85,
74,
73,
64,
65,
67,
58,
44,
34,
38,
48,
39,
46,
30,
43,
37,
29,
28,
23,
16,
14,
17,
18,
16,
10,
18,
16,
7,
13,
9,
6,
5,
4,
6,
1,
1,
4,
2,
1,
0,
0,
0,
0,
0,
0,
1,
0,
0,
0,
0,
0,
0,
0,
0,
0,
0,
0,
0,
0,
1,
0,
0,
0,
0,
0,
0,
0,
0,
0,
0,
0,
0,
0,
0,
0,
0,
0,
0,
0,
0,
0,
0,
0,
0,
0,
0,
0,
0,
0,
0,
0,
0,
0,
0,
0,
0,
0,
0,
0,
0,
0,
0,
0,
0,
0,
0,
0,
0,
0,
0,
0,
0,
0,
0,
0,
0,
0,
0,
0,
0,
0,
0,
0,
0,
0,
0,
0,
0,
0,
0,
0,
0,
0,
0,
0,
0,
0,
0,
0,
0,
0,
0,
0,
0,
0,
0,
0,
0,
0,
0,
0,
0,
0,
0,
0,
0,
0,
0,
0,
0,
0,
0,
0,
0,
0,
0,
0,
0,
0,
0,
0,
0,
0,
0,
0,
0,
0,
0,
0,
0,
0,
0,
0,
0,
0,
0,
0,
0,
0,
0,
#ENDOFDATA   :