Folder: spex_quant/N132962/Quantification/MMM1 (part 6)

File: SPI MM1 Dolomite[3][4].msa
#FORMAT      : EMSA/MAS Spectral Data File
#VERSION     : 1.0
#TITLE       : SPI MM1dup Dolomite[3][all]
#DATE        : 12-MAR-2025
#TIME        : 15:48
#OWNER       : Unknown
#NPOINTS     : 4096
#NCOLUMNS    : 1
#XUNITS      : eV
#YUNITS      : counts
#DATATYPE    : Y
#XPERCHAN    : 9.99778
#OFFSET      : 1.69135
#BEAMKV      : 20
#SIGNALTYPE  : EDS
#ELEVANGLE   : 35
#AZIMANGLE   : 0
#LIVETIME    : 239.88
#REALTIME    : 250.736
#PROBECUR    : 1.02695
#TAUWIND     : 0
#TDEADLYR    : 0
#TACTLYR     : 0.045
#TALWIND     : 0.025
#CHOFFSET    : 0.0
#XLABEL      : Energy (eV)
#YLABEL      : Counts
#XPOSITION   : -0.04171
#YPOSITION   : 2.00952
#ZPOSITION   : 31.03608
#EDSDET      : SD
##SPECIMEN   : SPI MM1dup Dolomite[3][all]
##DET_HASH   : 12273538-fd48-a23f-0a19-f1e6fa85caef
##CALIB_HASH : 6abaa72c-aa41-8738-0be9-f592914732f3
##WORKING    : 15.0 mm
##DET_NAME   : EDAX All
##DET_MODE   : MediumLE
#SPECTRUM    :
31,
199,
26602,
3748,
35005,
1790,
1958,
2492,
3493,
85518,
2846,
3138,
3344,
3437,
4000,
2791,
2900,
2825,
2617,
2633,
2554,
2376,
2318,
2224,
2141,
2529,
55821,
19046,
3944,
9638,
1580,
1353,
1413,
1288,
1177,
1281,
1163,
1126,
1102,
1079,
1009,
1034,
1001,
920,
885,
921,
1016,
810,
794,
759,
748,
725,
728,
755,
651,
606,
605,
598,
529,
532,
520,
483,
507,
496,
434,
404,
405,
401,
376,
347,
357,
382,
319,
280,
324,
311,
305,
282,
290,
265,
266,
228,
194,
223,
211,
170,
208,
199,
189,
173,
189,
170,
142,
132,
128,
144,
120,
99,
96,
100,
107,
80,
84,
90,
76,
80,
70,
74,
62,
53,
57,
53,
48,
38,
30,
40,
30,
40,
38,
31,
28,
24,
16,
11,
15,
27,
17,
15,
19,
22,
14,
12,
9,
9,
5,
10,
5,
3,
1,
3,
1,
2,
1,
0,
1,
0,
0,
0,
0,
0,
0,
0,
0,
0,
0,
0,
0,
0,
0,
0,
0,
0,
0,
0,
0,
0,
0,
0,
0,
0,
0,
0,
0,
0,
0,
0,
0,
0,
0,
0,
0,
0,
0,
0,
0,
0,
0,
0,
0,
0,
0,
0,
0,
0,
0,
0,
0,
0,
0,
0,
0,
0,
0,
0,
0,
0,
0,
0,
0,
0,
0,
0,
0,
0,
0,
0,
0,
0,
0,
0,
0,
0,
0,
0,
0,
0,
0,
0,
0,
0,
0,
0,
0,
0,
0,
0,
0,
0,
0,
0,
0,
0,
0,
0,
0,
0,
0,
0,
0,
0,
0,
0,
0,
0,
0,
0,
0,
0,
0,
0,
0,
0,
0,
0,
0,
0,
0,
0,
0,
0,
0,
0,
0,
0,
0,
0,
0,
0,
0,
0,
0,
0,
0,
0,
0,
0,
0,
0,
0,
0,
0,
0,
0,
0,
#ENDOFDATA   :

File: SPI MM1 Dolomite[7][4].msa
#FORMAT      : EMSA/MAS Spectral Data File
#VERSION     : 1.0
#TITLE       : SPI MM1dup Dolomite[7][all]
#DATE        : 12-MAR-2025
#TIME        : 15:53
#OWNER       : Unknown
#NPOINTS     : 4096
#NCOLUMNS    : 1
#XUNITS      : eV
#YUNITS      : counts
#DATATYPE    : Y
#XPERCHAN    : 9.99778
#OFFSET      : 1.69135
#BEAMKV      : 20
#SIGNALTYPE  : EDS
#ELEVANGLE   : 35
#AZIMANGLE   : 0
#LIVETIME    : 239.914
#REALTIME    : 250.79
#PROBECUR    : 1.02695
#TAUWIND     : 0
#TDEADLYR    : 0
#TACTLYR     : 0.045
#TALWIND     : 0.025
#CHOFFSET    : 0.0
#XLABEL      : Energy (eV)
#YLABEL      : Counts
#XPOSITION   : -0.11612
#YPOSITION   : 1.98936
#ZPOSITION   : 31.03608
#EDSDET      : SD
##SPECIMEN   : SPI MM1dup Dolomite[7][all]
##DET_HASH   : 12273538-fd48-a23f-0a19-f1e6fa85caef
##CALIB_HASH : 6abaa72c-aa41-8738-0be9-f592914732f3
##WORKING    : 15.0 mm
##DET_NAME   : EDAX All
##DET_MODE   : MediumLE
#SPECTRUM    :
24,
220,
26647,
3755,
35596,
1554,
2071,
2436,
3440,
86641,
2874,
3028,
3237,
3422,
3942,
2922,
2931,
2780,
2733,
2566,
2441,
2334,
2185,
2272,
2062,
2495,
55144,
19110,
4006,
9344,
1525,
1384,
1266,
1193,
1214,
1258,
1152,
1125,
1102,
1053,
949,
965,
1043,
912,
863,
909,
1019,
805,
794,
710,
740,
676,
669,
728,
636,
659,
608,
568,
591,
536,
511,
483,
536,
429,
467,
430,
424,
399,
420,
405,
334,
332,
302,
354,
298,
323,
300,
290,
264,
255,
247,
224,
226,
246,
203,
201,
205,
181,
167,
177,
184,
153,
158,
127,
125,
117,
113,
95,
107,
91,
95,
96,
87,
85,
89,
58,
72,
65,
54,
54,
63,
50,
48,
47,
47,
25,
36,
40,
25,
35,
24,
21,
21,
19,
19,
20,
14,
22,
15,
8,
7,
10,
9,
7,
10,
4,
5,
3,
3,
1,
3,
1,
1,
0,
0,
0,
0,
0,
0,
1,
0,
0,
0,
0,
0,
0,
0,
0,
0,
0,
0,
0,
0,
0,
0,
0,
0,
0,
0,
0,
0,
0,
1,
0,
0,
0,
0,
0,
0,
0,
0,
0,
0,
0,
0,
0,
0,
0,
0,
0,
0,
0,
0,
0,
0,
0,
0,
0,
0,
0,
0,
0,
0,
0,
0,
0,
0,
0,
0,
0,
0,
0,
0,
0,
0,
0,
0,
0,
0,
0,
0,
0,
0,
0,
0,
0,
0,
0,
0,
0,
0,
0,
0,
0,
0,
0,
0,
0,
0,
0,
0,
0,
0,
0,
0,
0,
0,
0,
0,
0,
0,
0,
0,
0,
0,
0,
0,
0,
0,
0,
0,
0,
0,
0,
0,
0,
0,
0,
0,
0,
0,
0,
0,
0,
0,
0,
0,
0,
0,
0,
0,
0,
0,
0,
0,
0,
0,
0,
0,
0,
0,
0,
0,
0,
#ENDOFDATA   :

File: SPI MM1 Fluorapatite[1][4].msa
#FORMAT      : EMSA/MAS Spectral Data File
#VERSION     : 1.0
#TITLE       : SPI MM1 Fluorapatite[1][all]
#DATE        : 11-MAR-2025
#TIME        : 14:37
#OWNER       : Unknown
#NPOINTS     : 4096
#NCOLUMNS    : 1
#XUNITS      : eV
#YUNITS      : counts
#DATATYPE    : Y
#XPERCHAN    : 9.99778
#OFFSET      : 1.69135
#BEAMKV      : 20
#SIGNALTYPE  : EDS
#ELEVANGLE   : 35
#AZIMANGLE   : 0
#LIVETIME    : 239.873
#REALTIME    : 255.661
#PROBECUR    : 1.02809
#TAUWIND     : 0
#TDEADLYR    : 0
#TACTLYR     : 0.045
#TALWIND     : 0.025
#CHOFFSET    : 0.0
#XLABEL      : Energy (eV)
#YLABEL      : Counts
#XPOSITION   : -2.5772
#YPOSITION   : 1.89486
#ZPOSITION   : 30.9284
#EDSDET      : SD
##SPECIMEN   : SPI MM1 Fluorapatite[1][all]
##D2STDCMP   : Fluorapatite,(O:35.868),(F:3.5492),(P:23.146),(Ca:37.4368)
##DET_HASH   : 12273538-fd48-a23f-0a19-f1e6fa85caef
##CALIB_HASH : 6abaa72c-aa41-8738-0be9-f592914732f3
##WORKING    : 15.0 mm
##DET_NAME   : EDAX All
##DET_MODE   : MediumLE
#SPECTRUM    :
25,
279,
18304,
3176,
20995,
6538,
2817,
3477,
3866,
4460,
4682,
4967,
5384,
7540,
63417,
18660,
4165,
3699,
3178,
3127,
3122,
2958,
2919,
2964,
2757,
3619,
99331,
33372,
6419,
16372,
1849,
1799,
1674,
1790,
1707,
1732,
1664,
1581,
1547,
1438,
1483,
1630,
1401,
1318,
1209,
1225,
1267,
1148,
1096,
1014,
1053,
942,
990,
1080,
935,
871,
832,
793,
808,
798,
709,
672,
729,
685,
604,
586,
602,
578,
566,
547,
559,
496,
500,
493,
473,
440,
408,
396,
417,
412,
375,
352,
347,
325,
296,
318,
315,
309,
283,
222,
241,
224,
245,
229,
209,
188,
202,
181,
165,
185,
150,
165,
145,
149,
128,
106,
96,
117,
101,
86,
88,
82,
76,
59,
67,
71,
65,
58,
56,
41,
57,
37,
42,
35,
33,
37,
26,
27,
23,
17,
15,
15,
19,
15,
9,
17,
16,
5,
4,
2,
4,
3,
1,
0,
0,
0,
0,
0,
1,
0,
0,
0,
0,
1,
0,
0,
0,
1,
0,
0,
0,
0,
0,
0,
0,
0,
0,
0,
0,
0,
0,
0,
0,
0,
0,
0,
0,
0,
0,
0,
0,
0,
0,
0,
0,
0,
0,
0,
0,
0,
0,
0,
0,
0,
0,
0,
0,
0,
0,
0,
0,
0,
0,
0,
0,
0,
0,
0,
0,
0,
0,
0,
0,
0,
0,
0,
0,
0,
0,
0,
0,
0,
0,
0,
0,
0,
0,
0,
0,
0,
0,
0,
0,
0,
0,
0,
0,
0,
0,
0,
0,
0,
0,
0,
0,
0,
0,
0,
0,
0,
0,
0,
0,
0,
0,
0,
0,
0,
0,
0,
0,
0,
0,
0,
0,
0,
0,
0,
0,
0,
0,
0,
0,
0,
0,
0,
0,
0,
0,
0,
0,
0,
0,
0,
0,
0,
0,
0,
0,
0,
0,
0,
0,
0,
#ENDOFDATA   :

File: SPI MM1 Fluorapatite[2][4].msa
#FORMAT      : EMSA/MAS Spectral Data File
#VERSION     : 1.0
#TITLE       : SPI MM1 Fluorapatite[2][all]
#DATE        : 11-MAR-2025
#TIME        : 14:38
#OWNER       : Unknown
#NPOINTS     : 4096
#NCOLUMNS    : 1
#XUNITS      : eV
#YUNITS      : counts
#DATATYPE    : Y
#XPERCHAN    : 9.99778
#OFFSET      : 1.69135
#BEAMKV      : 20
#SIGNALTYPE  : EDS
#ELEVANGLE   : 35
#AZIMANGLE   : 0
#LIVETIME    : 239.878
#REALTIME    : 255.658
#PROBECUR    : 1.02809
#TAUWIND     : 0
#TDEADLYR    : 0
#TACTLYR     : 0.045
#TALWIND     : 0.025
#CHOFFSET    : 0.0
#XLABEL      : Energy (eV)
#YLABEL      : Counts
#XPOSITION   : -2.61157
#YPOSITION   : 1.81884
#ZPOSITION   : 30.9284
#EDSDET      : SD
##SPECIMEN   : SPI MM1 Fluorapatite[2][all]
##D2STDCMP   : Fluorapatite,(O:35.868),(F:3.5492),(P:23.146),(Ca:37.4368)
##DET_HASH   : 12273538-fd48-a23f-0a19-f1e6fa85caef
##CALIB_HASH : 6abaa72c-aa41-8738-0be9-f592914732f3
##WORKING    : 15.0 mm
##DET_NAME   : EDAX All
##DET_MODE   : MediumLE
#SPECTRUM    :
16,
236,
18076,
3068,
21015,
6323,
2752,
3529,
3741,
4303,
4760,
4863,
5565,
7504,
63428,
18962,
4100,
3657,
3323,
3070,
3021,
2991,
2999,
2939,
2764,
3536,
98999,
33136,
6492,
16212,
1821,
1737,
1699,
1746,
1749,
1692,
1608,
1586,
1650,
1459,
1501,
1591,
1406,
1346,
1234,
1267,
1287,
1089,
1040,
1012,
1064,
992,
983,
1088,
930,
888,
875,
809,
800,
790,
734,
758,
702,
674,
630,
636,
614,
557,
579,
608,
495,
484,
491,
473,
452,
448,
452,
424,
406,
401,
397,
375,
338,
376,
333,
299,
274,
257,
258,
283,
244,
228,
221,
212,
206,
205,
185,
178,
155,
166,
178,
143,
136,
126,
155,
125,
107,
93,
91,
85,
86,
85,
77,
67,
75,
65,
65,
52,
42,
51,
38,
35,
42,
34,
37,
28,
36,
25,
25,
23,
17,
8,
12,
15,
14,
8,
7,
8,
6,
2,
2,
4,
1,
1,
1,
0,
1,
0,
0,
0,
0,
1,
0,
0,
0,
0,
0,
0,
0,
0,
0,
0,
0,
0,
1,
0,
0,
0,
0,
0,
0,
0,
0,
0,
0,
0,
0,
0,
0,
0,
0,
0,
0,
0,
0,
0,
0,
0,
0,
0,
0,
0,
0,
0,
0,
0,
0,
0,
0,
0,
0,
0,
0,
0,
0,
0,
0,
0,
0,
0,
0,
0,
0,
0,
0,
0,
0,
0,
0,
0,
0,
0,
0,
0,
0,
0,
0,
0,
0,
0,
0,
0,
0,
0,
0,
0,
0,
0,
0,
0,
0,
0,
0,
0,
0,
0,
0,
0,
0,
0,
0,
0,
0,
0,
0,
0,
0,
0,
0,
0,
0,
0,
0,
0,
0,
0,
0,
0,
0,
0,
0,
0,
0,
0,
0,
0,
0,
0,
0,
0,
0,
0,
0,
0,
0,
0,
0,
0,
0,
0,
0,
0,
0,
0,
#ENDOFDATA   :

File: SPI MM1 Fluorapatite[4][4].msa
#FORMAT      : EMSA/MAS Spectral Data File
#VERSION     : 1.0
#TITLE       : SPI MM1 Fluorapatite[4][all]
#DATE        : 11-MAR-2025
#TIME        : 14:40
#OWNER       : Unknown
#NPOINTS     : 4096
#NCOLUMNS    : 1
#XUNITS      : eV
#YUNITS      : counts
#DATATYPE    : Y
#XPERCHAN    : 9.99778
#OFFSET      : 1.69135
#BEAMKV      : 20
#SIGNALTYPE  : EDS
#ELEVANGLE   : 35
#AZIMANGLE   : 0
#LIVETIME    : 239.87
#REALTIME    : 255.656
#PROBECUR    : 1.02809
#TAUWIND     : 0
#TDEADLYR    : 0
#TACTLYR     : 0.045
#TALWIND     : 0.025
#CHOFFSET    : 0.0
#XLABEL      : Energy (eV)
#YLABEL      : Counts
#XPOSITION   : -2.60014
#YPOSITION   : 1.91266
#ZPOSITION   : 30.9284
#EDSDET      : SD
##SPECIMEN   : SPI MM1 Fluorapatite[4][all]
##D2STDCMP   : Fluorapatite,(O:35.868),(F:3.5492),(P:23.146),(Ca:37.4368)
##DET_HASH   : 12273538-fd48-a23f-0a19-f1e6fa85caef
##CALIB_HASH : 6abaa72c-aa41-8738-0be9-f592914732f3
##WORKING    : 15.0 mm
##DET_NAME   : EDAX All
##DET_MODE   : MediumLE
#SPECTRUM    :
14,
229,
18201,
3039,
21064,
6402,
2784,
3427,
3727,
4342,
4643,
5061,
5504,
7418,
64247,
19125,
4218,
3559,
3327,
3178,
3230,
3021,
2868,
2885,
2686,
3534,
98434,
33234,
6449,
16520,
1918,
1733,
1650,
1706,
1676,
1656,
1608,
1646,
1689,
1498,
1487,
1647,
1266,
1314,
1191,
1204,
1266,
1073,
1068,
1006,
1020,
997,
972,
1080,
892,
830,
862,
780,
777,
763,
731,
704,
664,
630,
662,
617,
627,
575,
572,
550,
500,
499,
525,
510,
446,
461,
422,
439,
416,
396,
366,
385,
358,
329,
307,
280,
287,
282,
247,
263,
256,
253,
230,
241,
213,
207,
201,
165,
160,
150,
153,
140,
133,
128,
131,
115,
94,
108,
112,
99,
87,
81,
69,
74,
64,
53,
72,
52,
47,
49,
35,
43,
47,
37,
41,
28,
21,
23,
26,
24,
14,
17,
8,
6,
14,
8,
9,
7,
3,
5,
4,
4,
2,
1,
1,
0,
1,
1,
0,
0,
0,
0,
0,
0,
0,
0,
0,
1,
1,
0,
0,
0,
0,
0,
0,
1,
0,
0,
0,
0,
0,
0,
0,
0,
0,
0,
0,
0,
0,
0,
0,
0,
0,
0,
0,
0,
0,
0,
0,
0,
0,
0,
0,
0,
0,
0,
0,
0,
0,
0,
0,
0,
0,
0,
0,
0,
0,
0,
0,
0,
0,
0,
0,
0,
0,
0,
0,
0,
0,
0,
0,
0,
0,
0,
0,
0,
0,
0,
0,
0,
0,
0,
0,
0,
0,
0,
0,
0,
0,
0,
0,
0,
0,
0,
0,
0,
0,
0,
0,
0,
0,
0,
0,
0,
0,
0,
0,
0,
0,
0,
0,
0,
0,
0,
0,
0,
0,
0,
0,
0,
0,
0,
0,
0,
0,
0,
0,
0,
0,
0,
0,
0,
0,
0,
0,
0,
0,
0,
0,
0,
0,
0,
0,
0,
#ENDOFDATA   :

File: SPI MM1 Fluorapatite[5][4].msa
#FORMAT      : EMSA/MAS Spectral Data File
#VERSION     : 1.0
#TITLE       : SPI MM1 Fluorapatite[5][all]
#DATE        : 11-MAR-2025
#TIME        : 14:41
#OWNER       : Unknown
#NPOINTS     : 4096
#NCOLUMNS    : 1
#XUNITS      : eV
#YUNITS      : counts
#DATATYPE    : Y
#XPERCHAN    : 9.99778
#OFFSET      : 1.69135
#BEAMKV      : 20
#SIGNALTYPE  : EDS
#ELEVANGLE   : 35
#AZIMANGLE   : 0
#LIVETIME    : 239.877
#REALTIME    : 255.658
#PROBECUR    : 1.02809
#TAUWIND     : 0
#TDEADLYR    : 0
#TACTLYR     : 0.045
#TALWIND     : 0.025
#CHOFFSET    : 0.0
#XLABEL      : Energy (eV)
#YLABEL      : Counts
#XPOSITION   : -2.63368
#YPOSITION   : 1.85075
#ZPOSITION   : 30.9284
#EDSDET      : SD
##SPECIMEN   : SPI MM1 Fluorapatite[5][all]
##D2STDCMP   : Fluorapatite,(O:35.868),(F:3.5492),(P:23.146),(Ca:37.4368)
##DET_HASH   : 12273538-fd48-a23f-0a19-f1e6fa85caef
##CALIB_HASH : 6abaa72c-aa41-8738-0be9-f592914732f3
##WORKING    : 15.0 mm
##DET_NAME   : EDAX All
##DET_MODE   : MediumLE
#SPECTRUM    :
18,
264,
18129,
3087,
21230,
6342,
2826,
3518,
3848,
4306,
4646,
5014,
5487,
7653,
63504,
18926,
4194,
3693,
3365,
3177,
3031,
2926,
2969,
2858,
2718,
3575,
98533,
33349,
6406,
16630,
1901,
1761,
1731,
1818,
1714,
1707,
1709,
1645,
1620,
1434,
1534,
1687,
1364,
1321,
1258,
1307,
1269,
1133,
1121,
1041,
999,
931,
1042,
1090,
911,
940,
845,
851,
809,
793,
776,
704,
663,
666,
669,
642,
591,
562,
584,
555,
542,
497,
523,
503,
450,
477,
452,
395,
410,
370,
359,
364,
340,
352,
314,
301,
282,
299,
281,
262,
255,
263,
243,
240,
228,
173,
178,
180,
196,
183,
145,
146,
149,
121,
114,
116,
105,
102,
87,
102,
82,
77,
91,
98,
71,
67,
66,
56,
40,
49,
46,
47,
37,
33,
48,
24,
21,
20,
20,
21,
17,
15,
17,
15,
15,
11,
4,
8,
6,
0,
3,
3,
0,
1,
1,
0,
0,
1,
0,
0,
2,
0,
0,
0,
0,
1,
0,
0,
0,
0,
0,
1,
0,
0,
0,
0,
0,
0,
0,
0,
0,
0,
0,
0,
0,
0,
0,
0,
0,
0,
0,
0,
0,
0,
0,
0,
0,
0,
0,
0,
0,
0,
0,
0,
0,
0,
0,
0,
0,
0,
0,
0,
0,
0,
0,
0,
0,
0,
0,
0,
0,
0,
0,
0,
0,
0,
0,
0,
0,
0,
0,
0,
0,
0,
0,
0,
0,
0,
0,
0,
0,
0,
0,
0,
0,
0,
0,
0,
0,
0,
0,
0,
0,
0,
0,
0,
0,
0,
0,
0,
0,
0,
0,
0,
0,
0,
0,
0,
0,
0,
0,
0,
0,
0,
0,
0,
0,
0,
0,
0,
0,
0,
0,
0,
0,
0,
0,
0,
0,
0,
0,
0,
0,
0,
0,
0,
0,
0,
0,
0,
0,
0,
0,
0,
#ENDOFDATA   :

File: SPI MM1 Fluorapatite[6][4].msa
#FORMAT      : EMSA/MAS Spectral Data File
#VERSION     : 1.0
#TITLE       : SPI MM1 Fluorapatite[6][all]
#DATE        : 11-MAR-2025
#TIME        : 14:43
#OWNER       : Unknown
#NPOINTS     : 4096
#NCOLUMNS    : 1
#XUNITS      : eV
#YUNITS      : counts
#DATATYPE    : Y
#XPERCHAN    : 9.99778
#OFFSET      : 1.69135
#BEAMKV      : 20
#SIGNALTYPE  : EDS
#ELEVANGLE   : 35
#AZIMANGLE   : 0
#LIVETIME    : 239.885
#REALTIME    : 255.656
#PROBECUR    : 1.02809
#TAUWIND     : 0
#TDEADLYR    : 0
#TACTLYR     : 0.045
#TALWIND     : 0.025
#CHOFFSET    : 0.0
#XLABEL      : Energy (eV)
#YLABEL      : Counts
#XPOSITION   : -2.68136
#YPOSITION   : 1.89125
#ZPOSITION   : 30.9284
#EDSDET      : SD
##SPECIMEN   : SPI MM1 Fluorapatite[6][all]
##D2STDCMP   : Fluorapatite,(O:35.868),(F:3.5492),(P:23.146),(Ca:37.4368)
##DET_HASH   : 12273538-fd48-a23f-0a19-f1e6fa85caef
##CALIB_HASH : 6abaa72c-aa41-8738-0be9-f592914732f3
##WORKING    : 15.0 mm
##DET_NAME   : EDAX All
##DET_MODE   : MediumLE
#SPECTRUM    :
21,
251,
17662,
3146,
20925,
6401,
2841,
3422,
3827,
4232,
4652,
4975,
5500,
7574,
63600,
18850,
4215,
3614,
3424,
3088,
3053,
2940,
2951,
2816,
2718,
3541,
99164,
33103,
6574,
16465,
1963,
1664,
1668,
1824,
1683,
1776,
1669,
1552,
1615,
1477,
1506,
1613,
1411,
1318,
1215,
1234,
1272,
1125,
1091,
1092,
1013,
943,
1014,
1111,
914,
922,
815,
796,
755,
778,
753,
718,
672,
695,
599,
609,
605,
591,
557,
511,
561,
516,
528,
473,
482,
430,
438,
375,
439,
417,
376,
355,
331,
310,
354,
291,
298,
297,
256,
262,
268,
209,
212,
209,
210,
196,
192,
166,
171,
141,
145,
154,
152,
118,
120,
116,
101,
97,
96,
85,
83,
78,
86,
76,
74,
58,
45,
58,
47,
36,
57,
49,
33,
41,
42,
23,
27,
24,
21,
22,
16,
18,
9,
9,
14,
15,
7,
4,
6,
3,
3,
1,
3,
1,
0,
0,
0,
0,
0,
0,
1,
0,
0,
0,
0,
1,
0,
1,
0,
0,
0,
0,
0,
0,
0,
0,
0,
0,
0,
0,
0,
0,
0,
0,
0,
0,
0,
0,
0,
0,
0,
0,
0,
0,
0,
0,
0,
0,
0,
0,
0,
0,
0,
0,
0,
0,
0,
0,
0,
0,
0,
0,
0,
0,
0,
0,
0,
0,
0,
0,
0,
0,
0,
0,
0,
0,
0,
0,
0,
0,
0,
0,
0,
0,
0,
0,
0,
0,
0,
0,
0,
0,
0,
0,
0,
0,
0,
0,
0,
0,
0,
0,
0,
0,
0,
0,
0,
0,
0,
0,
0,
0,
0,
0,
0,
0,
0,
0,
0,
0,
0,
0,
0,
0,
0,
0,
0,
0,
0,
0,
0,
0,
0,
0,
0,
0,
0,
0,
0,
0,
0,
0,
0,
0,
0,
0,
0,
0,
0,
0,
0,
0,
0,
0,
#ENDOFDATA   :

File: SPI MM1 Galena[7][4].msa
#FORMAT      : EMSA/MAS Spectral Data File
#VERSION     : 1.0
#TITLE       : SPI MM1dup Galena[7][all]
#DATE        : 12-MAR-2025
#TIME        : 16:02
#OWNER       : Unknown
#NPOINTS     : 4096
#NCOLUMNS    : 1
#XUNITS      : eV
#YUNITS      : counts
#DATATYPE    : Y
#XPERCHAN    : 9.99778
#OFFSET      : 1.69135
#BEAMKV      : 20
#SIGNALTYPE  : EDS
#ELEVANGLE   : 35
#AZIMANGLE   : 0
#LIVETIME    : 239.839
#REALTIME    : 269.096
#PROBECUR    : 1.02695
#TAUWIND     : 0
#TDEADLYR    : 0
#TACTLYR     : 0.045
#TALWIND     : 0.025
#CHOFFSET    : 0.0
#XLABEL      : Energy (eV)
#YLABEL      : Counts
#XPOSITION   : -5.62405
#YPOSITION   : 1.90576
#ZPOSITION   : 31.03608
#EDSDET      : SD
##SPECIMEN   : SPI MM1dup Galena[7][all]
##DET_HASH   : 12273538-fd48-a23f-0a19-f1e6fa85caef
##CALIB_HASH : 6abaa72c-aa41-8738-0be9-f592914732f3
##WORKING    : 15.0 mm
##DET_NAME   : EDAX All
##DET_MODE   : MediumLE
#SPECTRUM    :
25,
1651,
17791,
4568,
10145,
9762,
7920,
8173,
9166,
9719,
10646,
11169,
11872,
25086,
11660,
11992,
53867,
224324,
35162,
12687,
5216,
5828,
7429,
5644,
5221,
5461,
5360,
5391,
5147,
5252,
5328,
5281,
5279,
5511,
5901,
5249,
5252,
4996,
4981,
4902,
4840,
4780,
4625,
4611,
4569,
4620,
4882,
4410,
4272,
4097,
4137,
3895,
3923,
3881,
3847,
3643,
3470,
3390,
3330,
3421,
3212,
3165,
3159,
3016,
2944,
3333,
3396,
2654,
2635,
2554,
2547,
2569,
2485,
2451,
3741,
15287,
8255,
2283,
2069,
2002,
1902,
1902,
1839,
1696,
1682,
1587,
1659,
1792,
1716,
2457,
6831,
2868,
1589,
1554,
1168,
1139,
992,
1085,
896,
896,
859,
878,
793,
787,
812,
1142,
986,
762,
749,
652,
566,
536,
463,
494,
491,
410,
428,
401,
388,
333,
317,
358,
278,
282,
253,
239,
235,
201,
174,
176,
178,
148,
125,
124,
135,
92,
91,
68,
62,
35,
40,
23,
19,
9,
9,
7,
3,
4,
5,
5,
8,
4,
7,
2,
7,
3,
1,
7,
3,
3,
2,
1,
1,
0,
1,
3,
3,
3,
1,
2,
1,
3,
1,
0,
2,
0,
5,
0,
2,
4,
1,
2,
2,
1,
1,
1,
0,
1,
0,
1,
1,
0,
2,
1,
2,
0,
0,
0,
0,
2,
0,
1,
1,
1,
0,
0,
1,
0,
0,
1,
0,
1,
0,
1,
1,
0,
0,
1,
0,
0,
0,
0,
0,
1,
0,
0,
1,
0,
0,
0,
0,
0,
0,
0,
0,
0,
0,
0,
0,
0,
0,
0,
0,
0,
0,
0,
0,
0,
0,
0,
0,
0,
0,
0,
0,
0,
0,
0,
0,
0,
0,
0,
0,
0,
0,
0,
0,
0,
0,
0,
0,
0,
0,
0,
0,
0,
0,
0,
0,
0,
0,
0,
0,
0,
0,
0,
0,
0,
0,
0,
0,
0,
0,
0,
#ENDOFDATA   :

File: SPI MM1 Hematite[1][4].msa
#FORMAT      : EMSA/MAS Spectral Data File
#VERSION     : 1.0
#TITLE       : SPI MM1dup Hematite[1][all]
#DATE        : 12-MAR-2025
#TIME        : 16:47
#OWNER       : Unknown
#NPOINTS     : 4096
#NCOLUMNS    : 1
#XUNITS      : eV
#YUNITS      : counts
#DATATYPE    : Y
#XPERCHAN    : 9.99778
#OFFSET      : 1.69135
#BEAMKV      : 20
#SIGNALTYPE  : EDS
#ELEVANGLE   : 35
#AZIMANGLE   : 0
#LIVETIME    : 239.797
#REALTIME    : 256.675
#PROBECUR    : 1.026781
#TAUWIND     : 0
#TDEADLYR    : 0
#TACTLYR     : 0.045
#TALWIND     : 0.025
#CHOFFSET    : 0.0
#XLABEL      : Energy (eV)
#YLABEL      : Counts
#XPOSITION   : 3.61642
#YPOSITION   : 4.17553
#ZPOSITION   : 31.03608
#EDSDET      : SD
##SPECIMEN   : SPI MM1dup Hematite[1][all]
##D2STDCMP   : Hematite,(O:30.0574),(Fe:69.9426),5.0
##DET_HASH   : 12273538-fd48-a23f-0a19-f1e6fa85caef
##CALIB_HASH : 6abaa72c-aa41-8738-0be9-f592914732f3
##WORKING    : 15.0 mm
##DET_NAME   : EDAX All
##DET_MODE   : MediumLE
#SPECTRUM    :
27,
314,
11295,
9798,
71102,
55034,
2250,
2431,
2792,
3365,
3827,
4095,
4604,
4769,
4262,
4359,
4185,
4278,
4206,
4187,
4044,
3955,
3843,
3755,
3634,
3526,
3374,
3246,
3299,
3081,
2983,
2851,
2828,
3227,
2657,
2492,
2344,
2435,
2343,
2296,
2221,
2087,
1950,
1990,
2388,
34731,
106428,
2948,
1745,
2297,
13586,
7710,
1275,
1216,
1249,
1115,
1147,
1072,
1070,
1105,
1053,
950,
974,
936,
872,
848,
808,
829,
790,
748,
748,
698,
690,
700,
650,
621,
628,
662,
570,
571,
535,
537,
494,
493,
428,
419,
461,
414,
400,
378,
342,
444,
423,
319,
278,
294,
302,
253,
250,
239,
229,
233,
201,
210,
200,
185,
157,
174,
147,
143,
152,
135,
155,
111,
105,
98,
98,
95,
77,
73,
86,
73,
78,
57,
50,
65,
41,
49,
44,
46,
31,
34,
24,
42,
24,
21,
8,
14,
6,
12,
8,
1,
3,
0,
0,
0,
1,
2,
0,
0,
0,
0,
1,
1,
0,
1,
0,
1,
0,
0,
1,
1,
0,
1,
0,
0,
0,
1,
0,
0,
0,
0,
0,
0,
0,
0,
0,
0,
0,
0,
0,
0,
0,
1,
0,
0,
0,
0,
0,
0,
0,
0,
0,
0,
0,
0,
0,
0,
0,
0,
0,
0,
0,
0,
0,
0,
0,
0,
0,
0,
0,
0,
0,
0,
0,
0,
1,
0,
0,
0,
0,
0,
0,
0,
0,
0,
0,
0,
0,
0,
0,
0,
0,
0,
0,
0,
0,
0,
0,
0,
0,
0,
0,
0,
0,
0,
0,
0,
0,
0,
0,
0,
0,
0,
0,
0,
0,
0,
0,
0,
0,
0,
0,
0,
0,
0,
0,
0,
0,
0,
0,
0,
0,
0,
0,
0,
0,
0,
0,
0,
0,
0,
0,
0,
0,
0,
0,
0,
0,
0,
0,
0,
0,
0,
#ENDOFDATA   :

File: SPI MM1 Hematite[4][4].msa
#FORMAT      : EMSA/MAS Spectral Data File
#VERSION     : 1.0
#TITLE       : SPI MM1dup Hematite[4][all]
#DATE        : 12-MAR-2025
#TIME        : 16:51
#OWNER       : Unknown
#NPOINTS     : 4096
#NCOLUMNS    : 1
#XUNITS      : eV
#YUNITS      : counts
#DATATYPE    : Y
#XPERCHAN    : 9.99778
#OFFSET      : 1.69135
#BEAMKV      : 20
#SIGNALTYPE  : EDS
#ELEVANGLE   : 35
#AZIMANGLE   : 0
#LIVETIME    : 239.7721
#REALTIME    : 256.616
#PROBECUR    : 1.026781
#TAUWIND     : 0
#TDEADLYR    : 0
#TACTLYR     : 0.045
#TALWIND     : 0.025
#CHOFFSET    : 0.0
#XLABEL      : Energy (eV)
#YLABEL      : Counts
#XPOSITION   : 3.64475
#YPOSITION   : 4.21664
#ZPOSITION   : 31.03608
#EDSDET      : SD
##SPECIMEN   : SPI MM1dup Hematite[4][all]
##D2STDCMP   : Hematite,(O:30.0574),(Fe:69.9426),5.0
##DET_HASH   : 12273538-fd48-a23f-0a19-f1e6fa85caef
##CALIB_HASH : 6abaa72c-aa41-8738-0be9-f592914732f3
##WORKING    : 15.0 mm
##DET_NAME   : EDAX All
##DET_MODE   : MediumLE
#SPECTRUM    :
25,
301,
11328,
9784,
71139,
54324,
2237,
2352,
2663,
3305,
3607,
4101,
4552,
4681,
4126,
4367,
4203,
4268,
4308,
4253,
3894,
3947,
3735,
3696,
3647,
3435,
3378,
3244,
3274,
3086,
2982,
2859,
2740,
3099,
2674,
2498,
2423,
2370,
2335,
2287,
2183,
2079,
2114,
2057,
2303,
34337,
105898,
2912,
1757,
2248,
13875,
7835,
1225,
1265,
1260,
1121,
1138,
1120,
1101,
1072,
1043,
959,
935,
1004,
889,
885,
864,
815,
850,
731,
800,
700,
738,
709,
693,
646,
617,
579,
605,
597,
556,
530,
465,
484,
479,
446,
429,
410,
415,
374,
351,
416,
370,
322,
292,
305,
286,
263,
270,
268,
240,
238,
198,
194,
208,
178,
186,
167,
178,
148,
134,
137,
126,
107,
114,
122,
88,
103,
73,
81,
85,
79,
69,
60,
65,
39,
53,
51,
30,
38,
39,
24,
29,
21,
29,
14,
13,
14,
16,
4,
4,
7,
4,
1,
2,
1,
0,
1,
0,
2,
0,
1,
1,
0,
0,
0,
0,
0,
0,
2,
0,
0,
1,
0,
0,
0,
0,
0,
0,
0,
0,
1,
1,
0,
0,
0,
2,
1,
0,
0,
0,
0,
0,
0,
0,
0,
0,
0,
0,
0,
0,
0,
0,
0,
0,
0,
0,
0,
0,
0,
0,
0,
0,
0,
0,
0,
0,
0,
0,
0,
0,
0,
0,
0,
0,
0,
0,
0,
0,
0,
0,
0,
0,
0,
0,
0,
0,
0,
0,
0,
0,
0,
0,
0,
0,
0,
0,
0,
0,
0,
0,
0,
0,
0,
0,
0,
0,
0,
0,
0,
0,
0,
0,
0,
0,
0,
0,
0,
0,
0,
0,
0,
0,
0,
0,
0,
0,
0,
0,
0,
0,
0,
0,
0,
0,
0,
0,
0,
0,
0,
0,
0,
0,
0,
0,
0,
0,
0,
0,
0,
0,
0,
0,
0,
#ENDOFDATA   :

File: SPI MM1 Hematite[5][4].msa
#FORMAT      : EMSA/MAS Spectral Data File
#VERSION     : 1.0
#TITLE       : SPI MM1dup Hematite[5][all]
#DATE        : 12-MAR-2025
#TIME        : 16:52
#OWNER       : Unknown
#NPOINTS     : 4096
#NCOLUMNS    : 1
#XUNITS      : eV
#YUNITS      : counts
#DATATYPE    : Y
#XPERCHAN    : 9.99778
#OFFSET      : 1.69135
#BEAMKV      : 20
#SIGNALTYPE  : EDS
#ELEVANGLE   : 35
#AZIMANGLE   : 0
#LIVETIME    : 239.805
#REALTIME    : 256.676
#PROBECUR    : 1.026781
#TAUWIND     : 0
#TDEADLYR    : 0
#TACTLYR     : 0.045
#TALWIND     : 0.025
#CHOFFSET    : 0.0
#XLABEL      : Energy (eV)
#YLABEL      : Counts
#XPOSITION   : 3.58523
#YPOSITION   : 4.18736
#ZPOSITION   : 31.03608
#EDSDET      : SD
##SPECIMEN   : SPI MM1dup Hematite[5][all]
##D2STDCMP   : Hematite,(O:30.0574),(Fe:69.9426),5.0
##DET_HASH   : 12273538-fd48-a23f-0a19-f1e6fa85caef
##CALIB_HASH : 6abaa72c-aa41-8738-0be9-f592914732f3
##WORKING    : 15.0 mm
##DET_NAME   : EDAX All
##DET_MODE   : MediumLE
#SPECTRUM    :
24,
252,
11141,
9926,
71313,
54844,
2344,
2280,
2768,
3297,
3692,
4191,
4572,
4733,
4191,
4308,
4262,
4300,
4212,
4204,
3995,
3984,
3923,
3705,
3476,
3324,
3437,
3261,
3178,
3012,
3011,
2888,
2739,
3152,
2599,
2527,
2478,
2373,
2420,
2288,
2204,
2098,
2033,
2032,
2366,
34960,
106069,
2828,
1738,
2255,
13854,
7660,
1243,
1256,
1254,
1151,
1095,
1071,
1134,
1104,
1002,
987,
906,
946,
862,
891,
854,
856,
774,
787,
770,
728,
726,
641,
677,
640,
695,
575,
562,
589,
535,
570,
471,
501,
465,
488,
446,
467,
422,
381,
354,
443,
362,
326,
300,
325,
353,
284,
237,
259,
239,
237,
212,
198,
188,
191,
184,
141,
149,
150,
147,
119,
130,
129,
113,
96,
91,
84,
104,
63,
77,
89,
49,
50,
59,
53,
56,
45,
33,
43,
32,
34,
24,
28,
20,
18,
16,
11,
11,
10,
5,
1,
4,
1,
1,
2,
0,
0,
1,
3,
2,
1,
2,
1,
0,
1,
1,
0,
0,
0,
0,
0,
1,
0,
1,
2,
0,
0,
0,
0,
1,
0,
0,
0,
0,
0,
0,
0,
0,
0,
0,
0,
0,
0,
0,
0,
0,
0,
0,
0,
0,
0,
0,
0,
0,
0,
0,
0,
0,
0,
0,
0,
0,
0,
0,
0,
0,
0,
0,
0,
0,
0,
0,
0,
0,
0,
0,
0,
0,
0,
0,
0,
0,
0,
0,
0,
0,
0,
0,
0,
0,
0,
0,
0,
0,
0,
0,
0,
0,
0,
0,
0,
0,
0,
0,
0,
0,
0,
0,
0,
0,
0,
0,
0,
0,
0,
0,
0,
0,
0,
0,
0,
0,
0,
0,
0,
0,
0,
0,
0,
0,
0,
0,
0,
0,
0,
0,
0,
0,
0,
0,
0,
0,
0,
0,
0,
0,
0,
0,
0,
0,
0,
0,
0,
#ENDOFDATA   :