Folder: spex_quant/N132962/Standards/15 keV (part 6)

File: Pt std.msa
#FORMAT      : EMSA/MAS Spectral Data File
#VERSION     : 1.0
#TITLE       : Pt standard for 'N132962' detector
#NPOINTS     : 4096
#NCOLUMNS    : 1
#XUNITS      : eV
#YUNITS      : counts
#DATATYPE    : Y
#SIGNALTYPE  : EDS
#XLABEL      : Energy (eV)
#YLABEL      : Counts
#XPERCHAN -eV: 9.99778
#OFFSET   -eV: 1.69135
#CHOFFSET    : 0
#DATE        : 27-Sep-2025
#TIME        : 20:38:00
#OWNER       : Unknown
#ELEVANGLE   : 35
#BEAMKV   -kV: 15
#LIVETIME  -s: 2159.64
#REALTIME  -s: 2402
#PROBECUR -nA: 1.21175
##WORKING -mm: 15
##D2STDCMP   : Pt,(Pt:100.0000)
##SIMILAR    : 1.1
#SPECTRUM    :
239,
12166,
183249,
75738,
75576,
86412,
104194,
119501,
117668,
120567,
125404,
184285,
158349,
136574,
408173,
2137687,
100158,
97539,
61600,
77019,
60161,
56535,
55890,
57232,
54791,
54745,
55652,
54522,
54615,
56758,
57335,
52534,
51728,
50420,
49419,
49075,
47377,
46772,
45864,
44920,
43669,
43031,
41934,
40940,
39567,
38945,
38879,
36522,
35949,
34759,
34075,
33080,
32087,
31576,
30653,
29576,
28527,
27860,
27775,
30365,
25979,
24579,
24011,
23115,
22416,
21459,
24717,
83294,
56847,
19662,
18348,
17934,
16666,
16257,
15577,
14850,
14555,
14896,
15878,
24368,
26625,
17378,
11877,
10658,
9311,
8941,
8496,
7910,
7597,
7110,
6878,
6356,
7393,
6351,
5316,
4864,
4285,
3909,
3454,
3162,
2820,
2435,
2022,
1769,
1370,
1049,
678,
251,
101,
72,
61,
70,
60,
68,
56,
55,
63,
47,
43,
34,
42,
53,
40,
41,
41,
41,
33,
31,
27,
30,
28,
31,
24,
24,
31,
24,
35,
26,
23,
16,
17,
16,
20,
12,
12,
12,
8,
14,
18,
5,
18,
16,
7,
7,
11,
6,
5,
6,
11,
5,
3,
6,
3,
5,
3,
3,
3,
6,
1,
2,
1,
0,
1,
2,
4,
1,
1,
3,
0,
2,
1,
1,
2,
0,
1,
1,
0,
0,
1,
0,
1,
0,
1,
0,
0,
1,
0,
0,
0,
1,
0,
0,
0,
0,
0,
0,
0,
0,
0,
0,
0,
0,
0,
0,
0,
0,
0,
0,
0,
0,
0,
0,
0,
0,
0,
0,
0,
0,
0,
0,
0,
0,
0,
0,
0,
0,
0,
0,
0,
0,
0,
0,
0,
0,
0,
0,
0,
0,
0,
0,
0,
0,
0,
0,
0,
0,
0,
0,
0,
0,
0,
0,
0,
0,
0,
0,
0,
0,
0,
0,
0,
0,
0,
0,
0,
0,
0,
0,
0,
0,
0,
0,
0,
0,
0,
0,
0,
0,
0,
0,
0,
0,
0,
0,
#ENDOFDATA   :

File: RbI std.msa
#FORMAT      : EMSA/MAS Spectral Data File
#VERSION     : 1.0
#TITLE       : RbI standard for 'N132962' detector
#NPOINTS     : 4096
#NCOLUMNS    : 1
#XUNITS      : eV
#YUNITS      : counts
#DATATYPE    : Y
#SIGNALTYPE  : EDS
#XLABEL      : Energy (eV)
#YLABEL      : Counts
#XPERCHAN -eV: 9.99778
#OFFSET   -eV: 1.69135
#CHOFFSET    : 0
#DATE        : 29-Sep-2025
#TIME        : 10:41:00
#OWNER       : Unknown
#ELEVANGLE   : 35
#BEAMKV   -kV: 15
#LIVETIME  -s: 2160.8
#REALTIME  -s: 2342.47
#PROBECUR -nA: 1.22416
##WORKING -mm: 15
##D2STDCMP   : RbI,(Rb:40.2443),(I:59.7557)
##SIMILAR    : 5.6
#SPECTRUM    :
216,
7452,
143737,
86261,
110944,
63075,
90081,
73403,
67533,
74796,
85803,
123083,
1286707,
236184,
56687,
58135,
59562,
56797,
57876,
56207,
55718,
53877,
52500,
51631,
52647,
74923,
49253,
64813,
683687,
78983,
323160,
126637,
125263,
48142,
61940,
39501,
48283,
33478,
29189,
28781,
28812,
27856,
27029,
26445,
25464,
25039,
24779,
23275,
22473,
21881,
21388,
20784,
20282,
19929,
19009,
18366,
17799,
17678,
17057,
16243,
15616,
15421,
14940,
14119,
13574,
12914,
12597,
12144,
11861,
11382,
10937,
10588,
10045,
9634,
9205,
8889,
8501,
8165,
7731,
7360,
7046,
6630,
6265,
5779,
5704,
5269,
4902,
4669,
4383,
3889,
3748,
3522,
3269,
2995,
2887,
2529,
2306,
2011,
1872,
1589,
1435,
1160,
961,
854,
580,
449,
221,
88,
41,
40,
43,
33,
29,
24,
30,
20,
26,
26,
20,
21,
13,
27,
21,
21,
18,
9,
11,
22,
20,
14,
13,
15,
7,
14,
6,
9,
7,
4,
7,
2,
10,
5,
8,
5,
5,
1,
2,
4,
4,
2,
2,
2,
0,
1,
6,
4,
2,
2,
4,
0,
1,
1,
2,
1,
1,
1,
0,
2,
0,
2,
0,
0,
0,
2,
0,
0,
1,
1,
1,
0,
0,
0,
0,
0,
0,
0,
0,
0,
0,
0,
0,
0,
0,
0,
0,
0,
0,
0,
0,
0,
0,
0,
0,
0,
0,
0,
0,
0,
0,
0,
0,
0,
0,
0,
0,
0,
0,
0,
0,
0,
0,
0,
0,
0,
0,
0,
0,
0,
0,
0,
0,
0,
0,
0,
0,
0,
0,
0,
0,
0,
0,
0,
0,
0,
0,
0,
0,
0,
0,
0,
0,
0,
0,
0,
0,
0,
0,
0,
0,
0,
0,
0,
0,
0,
0,
0,
0,
0,
0,
0,
0,
0,
0,
0,
0,
0,
0,
0,
0,
0,
0,
0,
0,
0,
0,
0,
0,
0,
0,
0,
0,
0,
0,
0,
#ENDOFDATA   :

File: Re std.msa
#FORMAT      : EMSA/MAS Spectral Data File
#VERSION     : 1.0
#TITLE       : Re standard for 'N132962' detector
#NPOINTS     : 4096
#NCOLUMNS    : 1
#XUNITS      : eV
#YUNITS      : counts
#DATATYPE    : Y
#SIGNALTYPE  : EDS
#XLABEL      : Energy (eV)
#YLABEL      : Counts
#XPERCHAN -eV: 9.99778
#OFFSET   -eV: 1.69135
#CHOFFSET    : 0
#DATE        : 27-Sep-2025
#TIME        : 20:58:00
#OWNER       : Unknown
#ELEVANGLE   : 35
#BEAMKV   -kV: 15
#LIVETIME  -s: 1440.12
#REALTIME  -s: 1603.98
#PROBECUR -nA: 1.21182
##WORKING -mm: 15
##D2STDCMP   : Re,(Re:100.0000)
##SIMILAR    : 1.1
#SPECTRUM    :
157,
9780,
92191,
44770,
55515,
64640,
76835,
87369,
86350,
88694,
188291,
99814,
120125,
1648489,
320417,
85140,
40706,
50308,
40397,
38587,
38066,
38565,
37792,
38012,
38155,
37731,
40198,
39669,
37044,
36206,
35394,
34662,
34411,
33772,
32759,
32242,
31981,
30996,
30333,
29694,
28846,
28048,
27577,
26707,
25832,
25568,
25223,
24075,
23798,
23112,
22147,
21538,
20770,
21019,
23820,
20755,
18634,
18208,
17630,
17134,
17116,
49702,
101373,
18348,
14909,
14270,
13210,
13008,
12707,
12520,
14096,
28319,
25149,
25985,
17763,
10563,
9117,
8387,
8104,
7739,
7520,
7260,
7031,
9439,
8262,
6415,
6299,
5372,
4967,
4731,
4354,
3964,
3728,
3515,
3228,
2934,
2772,
2523,
2157,
2008,
1816,
1583,
1319,
1087,
932,
654,
378,
152,
59,
46,
42,
52,
42,
34,
46,
38,
45,
23,
21,
24,
33,
29,
30,
43,
40,
28,
25,
22,
31,
22,
20,
15,
23,
25,
12,
28,
22,
17,
10,
22,
11,
18,
13,
14,
17,
5,
7,
10,
11,
8,
11,
8,
10,
4,
5,
9,
6,
2,
5,
5,
2,
1,
2,
2,
2,
2,
3,
3,
2,
3,
0,
0,
0,
1,
0,
1,
1,
2,
1,
2,
0,
2,
0,
0,
0,
0,
2,
0,
0,
1,
0,
0,
0,
0,
0,
0,
0,
0,
0,
0,
0,
0,
0,
0,
0,
0,
0,
0,
0,
0,
0,
0,
0,
0,
0,
0,
0,
0,
0,
0,
0,
0,
0,
0,
0,
0,
0,
0,
0,
0,
0,
0,
0,
0,
0,
0,
0,
0,
0,
0,
0,
0,
0,
0,
0,
0,
0,
0,
0,
0,
0,
0,
0,
0,
0,
0,
0,
0,
0,
0,
0,
0,
0,
0,
0,
0,
0,
0,
0,
0,
0,
0,
0,
0,
0,
0,
0,
0,
0,
0,
0,
0,
0,
0,
0,
0,
0,
0,
0,
0,
0,
0,
0,
0,
#ENDOFDATA   :

File: Rh std.msa
#FORMAT      : EMSA/MAS Spectral Data File
#VERSION     : 1.0
#TITLE       : Rh standard for 'N132962' detector
#NPOINTS     : 4096
#NCOLUMNS    : 1
#XUNITS      : eV
#YUNITS      : counts
#DATATYPE    : Y
#SIGNALTYPE  : EDS
#XLABEL      : Energy (eV)
#YLABEL      : Counts
#XPERCHAN -eV: 9.99778
#OFFSET   -eV: 1.69135
#CHOFFSET    : 0
#DATE        : 25-Sep-2025
#TIME        : 20:39:00
#OWNER       : Unknown
#ELEVANGLE   : 35
#BEAMKV   -kV: 15
#LIVETIME  -s: 1920.85
#REALTIME  -s: 2108.85
#PROBECUR -nA: 1.20931
##WORKING -mm: 15
##D2STDCMP   : Rh,(Rh:100.0000)
##SIMILAR    : 1.3
#SPECTRUM    :
231,
18112,
435072,
39124,
37760,
43049,
56514,
88173,
80683,
77700,
80363,
83975,
84009,
84689,
99024,
82797,
73572,
146914,
106426,
1404253,
732608,
264688,
92271,
46079,
51547,
32674,
33238,
32813,
32890,
32426,
32062,
31818,
32826,
30634,
30290,
29886,
29147,
28678,
28937,
29029,
28228,
26418,
25153,
23753,
23389,
23087,
22859,
21531,
20939,
20285,
19369,
19238,
18492,
18343,
17565,
16862,
16234,
15998,
15652,
14907,
14395,
13802,
13240,
13104,
12663,
12801,
12261,
11187,
10995,
10508,
9930,
9782,
9167,
8902,
8567,
8100,
7995,
7523,
7394,
6679,
6532,
6069,
5759,
5390,
5240,
4953,
4524,
4339,
3953,
3858,
3602,
3211,
3103,
2781,
2607,
2368,
2112,
1996,
1645,
1567,
1289,
1188,
953,
760,
612,
454,
259,
110,
39,
38,
28,
26,
34,
24,
24,
12,
17,
16,
14,
17,
7,
19,
20,
18,
10,
16,
3,
12,
12,
11,
10,
13,
9,
5,
6,
2,
3,
7,
6,
8,
2,
6,
0,
4,
3,
7,
2,
1,
4,
1,
0,
3,
1,
3,
1,
0,
2,
1,
0,
2,
3,
2,
1,
0,
1,
1,
1,
0,
0,
1,
0,
1,
0,
0,
0,
0,
0,
0,
0,
0,
0,
0,
1,
1,
0,
0,
1,
0,
0,
0,
0,
1,
0,
0,
0,
0,
0,
0,
0,
0,
0,
0,
0,
0,
0,
0,
0,
0,
0,
0,
0,
0,
0,
0,
0,
0,
0,
0,
0,
0,
0,
0,
0,
0,
0,
0,
0,
0,
0,
0,
0,
0,
0,
0,
0,
0,
0,
0,
0,
0,
0,
0,
0,
0,
0,
0,
0,
0,
0,
0,
0,
0,
0,
0,
0,
0,
0,
0,
0,
0,
0,
0,
0,
0,
0,
0,
0,
0,
0,
0,
0,
0,
0,
0,
0,
0,
0,
0,
0,
0,
0,
0,
0,
0,
0,
0,
0,
0,
0,
0,
0,
0,
0,
0,
#ENDOFDATA   :

File: Ru std.msa
#FORMAT      : EMSA/MAS Spectral Data File
#VERSION     : 1.0
#TITLE       : Ru standard for 'N132962' detector
#NPOINTS     : 4096
#NCOLUMNS    : 1
#XUNITS      : eV
#YUNITS      : counts
#DATATYPE    : Y
#SIGNALTYPE  : EDS
#XLABEL      : Energy (eV)
#YLABEL      : Counts
#XPERCHAN -eV: 9.99778
#OFFSET   -eV: 1.69135
#CHOFFSET    : 0
#DATE        : 30-Sep-2025
#TIME        : 17:27:00
#OWNER       : Unknown
#ELEVANGLE   : 35
#BEAMKV   -kV: 15
#LIVETIME  -s: 1684.76
#REALTIME  -s: 1853.22
#PROBECUR -nA: 1.23069
##WORKING -mm: 15
##D2STDCMP   : Ru,(Ru:100.0000)
##SIMILAR    : 1.3
#SPECTRUM    :
161,
21649,
216441,
33471,
35592,
43754,
77151,
67280,
67105,
70069,
72635,
74115,
76072,
75325,
64936,
64713,
133213,
98632,
1280823,
807996,
218044,
72935,
33671,
41099,
29468,
29192,
29734,
29719,
28771,
28962,
28096,
28044,
29145,
27051,
26320,
26247,
25830,
27239,
25188,
23809,
22789,
22071,
21212,
20755,
20150,
19540,
19517,
18342,
17913,
17302,
16547,
16606,
15686,
15517,
14906,
14448,
13841,
13672,
13095,
12556,
12216,
11780,
11388,
11011,
10573,
10138,
9671,
9551,
9300,
8604,
8559,
8144,
7757,
7594,
7052,
6885,
6574,
6263,
5979,
5628,
5249,
5195,
4992,
4616,
4257,
4141,
3855,
3615,
3372,
3115,
2992,
2755,
2615,
2316,
2138,
1976,
1692,
1638,
1482,
1310,
1075,
934,
750,
668,
511,
385,
221,
79,
31,
34,
29,
21,
21,
19,
24,
20,
18,
17,
14,
9,
10,
22,
10,
18,
11,
12,
6,
8,
6,
3,
8,
9,
7,
9,
3,
4,
5,
2,
6,
1,
1,
4,
4,
3,
1,
6,
2,
5,
0,
0,
1,
3,
1,
2,
1,
1,
1,
1,
0,
1,
0,
1,
0,
1,
2,
1,
1,
0,
0,
1,
1,
0,
1,
0,
0,
0,
0,
2,
0,
0,
0,
0,
0,
0,
1,
0,
0,
0,
0,
0,
1,
0,
0,
0,
0,
0,
0,
0,
0,
0,
0,
0,
0,
0,
0,
0,
0,
0,
0,
0,
0,
0,
0,
0,
0,
0,
0,
0,
0,
0,
0,
0,
0,
0,
0,
0,
0,
0,
0,
0,
0,
0,
0,
0,
0,
0,
0,
0,
0,
0,
0,
0,
0,
0,
0,
0,
0,
0,
0,
0,
0,
0,
0,
0,
0,
0,
0,
0,
0,
0,
0,
0,
0,
0,
0,
0,
0,
0,
0,
0,
0,
0,
0,
0,
0,
0,
0,
0,
0,
0,
0,
0,
0,
0,
0,
0,
0,
0,
0,
0,
0,
0,
0,
0,
#ENDOFDATA   :

File: Sb std.msa
#FORMAT      : EMSA/MAS Spectral Data File
#VERSION     : 1.0
#TITLE       : Sb standard for 'N132962' detector
#NPOINTS     : 4096
#NCOLUMNS    : 1
#XUNITS      : eV
#YUNITS      : counts
#DATATYPE    : Y
#SIGNALTYPE  : EDS
#XLABEL      : Energy (eV)
#YLABEL      : Counts
#XPERCHAN -eV: 9.99778
#OFFSET   -eV: 1.69135
#CHOFFSET    : 0
#DATE        : 26-Sep-2025
#TIME        : 16:40:00
#OWNER       : Unknown
#ELEVANGLE   : 35
#BEAMKV   -kV: 15
#LIVETIME  -s: 2169.1
#REALTIME  -s: 2358.58
#PROBECUR -nA: 1.21512
##WORKING -mm: 15
##D2STDCMP   : Sb,(Sb:100.0000)
##SIMILAR    : 1.1
#SPECTRUM    :
205,
19740,
157749,
611800,
97334,
72922,
55604,
51530,
58601,
65406,
71380,
75682,
80095,
90809,
71876,
77935,
71265,
71165,
67763,
66349,
63941,
62237,
64261,
102324,
64461,
186817,
1110959,
291132,
397132,
179463,
71966,
101678,
39492,
60008,
32294,
30633,
30188,
30084,
30334,
30227,
28262,
27828,
27539,
26819,
25920,
26809,
28713,
24400,
23748,
23098,
22734,
22179,
21539,
21716,
20518,
19884,
18839,
18308,
17698,
17152,
16511,
15813,
15197,
14907,
14289,
13981,
13612,
13004,
12843,
12153,
11716,
11498,
10688,
10363,
10140,
9615,
9232,
8690,
8341,
7937,
7473,
7287,
6881,
6487,
6157,
5852,
5444,
5167,
4770,
4487,
4265,
4041,
3634,
3293,
3128,
2864,
2575,
2364,
2072,
1826,
1604,
1351,
1159,
1006,
762,
580,
302,
127,
50,
47,
35,
35,
27,
42,
31,
31,
30,
28,
27,
28,
21,
31,
20,
27,
29,
19,
20,
20,
20,
15,
10,
7,
15,
9,
9,
9,
8,
8,
9,
7,
8,
7,
4,
3,
4,
6,
3,
3,
5,
3,
3,
5,
0,
6,
2,
0,
0,
3,
2,
3,
1,
0,
1,
0,
2,
1,
1,
0,
0,
0,
0,
0,
1,
1,
0,
0,
0,
1,
0,
0,
1,
0,
0,
2,
0,
0,
0,
0,
0,
0,
0,
0,
0,
0,
0,
0,
0,
0,
0,
0,
0,
0,
0,
0,
0,
0,
0,
0,
0,
0,
0,
0,
0,
0,
0,
0,
0,
0,
0,
0,
0,
0,
0,
0,
0,
0,
0,
0,
0,
0,
0,
0,
0,
0,
0,
0,
0,
0,
0,
0,
0,
0,
0,
0,
0,
0,
0,
0,
0,
0,
0,
0,
0,
0,
0,
0,
0,
0,
0,
0,
0,
0,
0,
0,
0,
0,
0,
0,
0,
0,
0,
0,
0,
0,
0,
0,
0,
0,
0,
0,
0,
0,
0,
0,
0,
0,
0,
0,
0,
0,
0,
0,
0,
0,
#ENDOFDATA   :

File: Sc std.msa
#FORMAT      : EMSA/MAS Spectral Data File
#VERSION     : 1.0
#TITLE       : Sc standard for 'N132962' detector
#NPOINTS     : 4096
#NCOLUMNS    : 1
#XUNITS      : eV
#YUNITS      : counts
#DATATYPE    : Y
#SIGNALTYPE  : EDS
#XLABEL      : Energy (eV)
#YLABEL      : Counts
#XPERCHAN -eV: 9.99778
#OFFSET   -eV: 1.69135
#CHOFFSET    : 0
#DATE        : 26-Sep-2025
#TIME        : 21:11:00
#OWNER       : Unknown
#ELEVANGLE   : 35
#BEAMKV   -kV: 15
#LIVETIME  -s: 1440.6
#REALTIME  -s: 1552.64
#PROBECUR -nA: 1.21419
##WORKING -mm: 15
##D2STDCMP   : Sc,(Sc:100.0000)
##SIMILAR    : 1.6
#SPECTRUM    :
143,
3109,
176076,
107450,
25684,
32649,
26677,
30749,
33684,
37395,
40757,
42802,
42461,
40240,
33384,
32656,
32805,
41459,
28815,
27865,
25874,
24321,
23655,
22675,
21833,
21619,
20294,
19811,
36261,
1468322,
155748,
36399,
215461,
13000,
10871,
10690,
10435,
10231,
10149,
9776,
9467,
9189,
9074,
8688,
8315,
8417,
8668,
7592,
7173,
7168,
6915,
6683,
6358,
6277,
6053,
5796,
5666,
5481,
6506,
6111,
4892,
5147,
4519,
4183,
4083,
3914,
3830,
3708,
3418,
3433,
3364,
3031,
3006,
2741,
2607,
2487,
2415,
2302,
2235,
2095,
1865,
1827,
1655,
1653,
1526,
1439,
1336,
1280,
1119,
1108,
991,
946,
794,
743,
738,
641,
563,
540,
433,
357,
324,
276,
223,
192,
130,
96,
70,
27,
10,
10,
13,
10,
2,
9,
7,
11,
4,
3,
4,
4,
2,
7,
6,
6,
3,
4,
2,
1,
5,
1,
1,
1,
2,
0,
3,
1,
0,
0,
1,
0,
1,
0,
1,
1,
0,
1,
0,
0,
0,
1,
0,
0,
1,
0,
0,
0,
0,
0,
0,
0,
0,
0,
0,
0,
0,
0,
0,
0,
0,
0,
0,
0,
0,
0,
0,
0,
0,
0,
0,
0,
0,
0,
0,
0,
0,
0,
0,
0,
0,
0,
0,
0,
0,
0,
0,
0,
0,
0,
0,
0,
0,
0,
0,
0,
0,
0,
0,
0,
0,
0,
0,
0,
0,
0,
0,
0,
0,
0,
0,
0,
0,
0,
0,
0,
0,
0,
0,
0,
0,
0,
0,
0,
0,
0,
0,
0,
0,
0,
0,
0,
0,
0,
0,
0,
0,
0,
0,
0,
0,
0,
0,
0,
0,
0,
0,
0,
0,
0,
0,
0,
0,
0,
0,
0,
0,
0,
0,
0,
0,
0,
0,
0,
0,
0,
0,
0,
0,
0,
0,
0,
0,
0,
0,
0,
0,
0,
0,
0,
0,
0,
0,
0,
0,
0,
#ENDOFDATA   :

File: Se std.msa
#FORMAT      : EMSA/MAS Spectral Data File
#VERSION     : 1.0
#TITLE       : Se standard for 'N132962' detector
#NPOINTS     : 4096
#NCOLUMNS    : 1
#XUNITS      : eV
#YUNITS      : counts
#DATATYPE    : Y
#SIGNALTYPE  : EDS
#XLABEL      : Energy (eV)
#YLABEL      : Counts
#XPERCHAN -eV: 9.99778
#OFFSET   -eV: 1.69135
#CHOFFSET    : 0
#DATE        : 25-Sep-2025
#TIME        : 21:07:00
#OWNER       : Unknown
#ELEVANGLE   : 35
#BEAMKV   -kV: 15
#LIVETIME  -s: 1680.27
#REALTIME  -s: 1864.85
#PROBECUR -nA: 1.20952
##WORKING -mm: 15
##D2STDCMP   : Se,(Se:100.0000)
##SIMILAR    : 2.0
#SPECTRUM    :
210,
2446,
48819,
38633,
54760,
70498,
83123,
89508,
109159,
245876,
4412858,
56561,
33708,
33458,
31045,
32999,
33712,
34523,
34976,
37026,
53745,
33373,
32092,
31682,
30852,
30260,
29252,
28804,
27657,
27006,
25989,
25361,
26357,
24091,
23123,
22475,
21601,
20894,
20246,
19751,
19197,
18349,
17777,
17286,
16636,
16108,
16177,
14950,
14440,
13856,
13593,
13066,
12606,
12359,
11878,
11315,
10685,
10580,
10203,
9842,
9355,
9096,
8583,
8475,
8090,
7659,
7333,
7370,
6995,
6820,
6383,
6239,
6018,
5490,
5411,
5380,
5012,
4670,
4636,
11189,
41210,
10316,
3702,
3340,
3327,
2995,
2854,
2760,
3089,
7015,
4098,
2137,
1686,
1650,
1536,
1378,
1308,
1109,
993,
902,
788,
670,
568,
435,
346,
252,
150,
67,
24,
16,
11,
13,
15,
11,
17,
12,
5,
7,
7,
7,
5,
9,
8,
9,
8,
11,
8,
6,
12,
4,
9,
5,
6,
7,
5,
6,
6,
3,
6,
2,
2,
3,
4,
2,
5,
6,
4,
1,
1,
1,
3,
2,
2,
1,
2,
1,
3,
0,
0,
1,
2,
1,
1,
2,
0,
2,
0,
0,
2,
1,
0,
2,
0,
2,
0,
2,
1,
0,
2,
0,
1,
0,
0,
0,
0,
1,
0,
0,
0,
1,
0,
0,
0,
0,
1,
0,
0,
0,
0,
0,
0,
0,
0,
0,
0,
0,
0,
0,
0,
0,
0,
0,
0,
0,
0,
0,
0,
0,
0,
0,
0,
0,
0,
0,
0,
0,
0,
0,
0,
0,
0,
0,
0,
0,
0,
0,
0,
0,
0,
0,
0,
0,
0,
0,
0,
0,
0,
0,
0,
0,
0,
0,
0,
0,
0,
0,
0,
0,
0,
0,
0,
0,
0,
0,
0,
0,
0,
0,
0,
0,
0,
0,
0,
0,
0,
0,
0,
0,
0,
0,
0,
0,
0,
0,
0,
0,
0,
0,
0,
0,
0,
0,
0,
0,
#ENDOFDATA   :

File: Si std.msa
#FORMAT      : EMSA/MAS Spectral Data File
#VERSION     : 1.0
#TITLE       : Si standard for 'N132962' detector
#NPOINTS     : 4096
#NCOLUMNS    : 1
#XUNITS      : eV
#YUNITS      : counts
#DATATYPE    : Y
#SIGNALTYPE  : EDS
#XLABEL      : Energy (eV)
#YLABEL      : Counts
#XPERCHAN -eV: 9.99778
#OFFSET   -eV: 1.69135
#CHOFFSET    : 0
#DATE        : 27-Sep-2025
#TIME        : 16:41:00
#OWNER       : Unknown
#ELEVANGLE   : 35
#BEAMKV   -kV: 15
#LIVETIME  -s: 2160.98
#REALTIME  -s: 2415.68
#PROBECUR -nA: 1.21005
##WORKING -mm: 15
##D2STDCMP   : Si,(Si:100.0000)
##SIMILAR    : 1.1
#SPECTRUM    :
223,
2529,
51681,
26036,
45425,
59388,
69635,
74405,
72618,
72599,
76609,
97762,
2628865,
1111263,
21007,
19396,
20775,
21120,
21421,
21671,
20834,
20518,
20092,
19574,
21271,
66915,
18801,
16599,
15696,
15353,
14731,
14199,
13728,
13292,
12672,
12242,
11827,
11552,
11212,
10587,
10264,
9725,
9416,
9262,
8751,
8440,
8201,
7836,
7296,
7043,
6883,
6749,
6419,
6235,
5876,
5551,
5493,
5297,
4981,
4782,
4558,
4378,
4332,
4101,
3809,
3670,
3421,
3363,
3258,
3023,
2950,
2692,
2596,
2555,
2327,
2352,
2157,
2127,
1911,
1934,
1685,
1532,
1523,
1407,
1330,
1231,
1230,
1047,
960,
970,
880,
811,
699,
702,
618,
495,
487,
426,
381,
325,
277,
217,
197,
146,
112,
76,
40,
20,
10,
7,
3,
6,
1,
2,
4,
2,
5,
2,
2,
2,
0,
2,
3,
1,
3,
0,
0,
0,
1,
0,
2,
1,
0,
0,
0,
1,
1,
0,
1,
0,
0,
0,
0,
0,
0,
0,
1,
1,
0,
0,
0,
0,
0,
0,
0,
0,
1,
0,
0,
0,
0,
0,
0,
0,
0,
0,
0,
0,
0,
0,
0,
0,
0,
0,
0,
0,
0,
0,
0,
0,
0,
0,
0,
0,
0,
0,
0,
0,
0,
0,
0,
0,
0,
0,
0,
0,
0,
0,
0,
0,
0,
0,
0,
0,
0,
0,
0,
0,
0,
0,
0,
0,
0,
0,
0,
0,
0,
0,
0,
0,
0,
0,
0,
0,
0,
0,
0,
0,
0,
0,
0,
0,
0,
0,
0,
0,
0,
0,
0,
0,
0,
0,
0,
1,
0,
0,
0,
0,
0,
0,
0,
0,
0,
0,
0,
0,
0,
0,
0,
0,
0,
0,
0,
0,
0,
0,
0,
0,
0,
0,
0,
0,
0,
0,
0,
0,
0,
0,
0,
0,
0,
0,
0,
0,
0,
0,
0,
0,
0,
0,
0,
0,
0,
0,
#ENDOFDATA   :

File: SiO2 std.msa
#FORMAT      : EMSA/MAS Spectral Data File
#VERSION     : 1.0
#TITLE       : SiO2 standard for 'N132962' detector
#NPOINTS     : 4096
#NCOLUMNS    : 1
#XUNITS      : eV
#YUNITS      : counts
#DATATYPE    : Y
#SIGNALTYPE  : EDS
#XLABEL      : Energy (eV)
#YLABEL      : Counts
#XPERCHAN -eV: 9.99778
#OFFSET   -eV: 1.69135
#CHOFFSET    : 0
#DATE        : 27-Sep-2025
#TIME        : 17:12:00
#OWNER       : Unknown
#ELEVANGLE   : 35
#BEAMKV   -kV: 15
#LIVETIME  -s: 1919.23
#REALTIME  -s: 2064.84
#PROBECUR -nA: 1.20983
##WORKING -mm: 15
##D2STDCMP   : SiO2,(O:53.2563),(Si:46.7437)
##SIMILAR    : 1.2
#SPECTRUM    :
231,
1782,
47575,
86640,
785614,
20808,
27622,
36178,
34619,
36227,
39966,
48457,
925868,
417045,
17907,
17386,
30157,
17427,
16651,
16349,
15605,
14962,
14332,
13576,
13587,
20037,
12379,
11548,
11001,
10660,
10116,
9686,
9496,
8865,
8335,
8209,
7862,
7508,
7233,
6872,
6733,
6229,
6112,
5721,
5599,
5366,
5275,
4791,
4867,
4485,
4390,
4428,
3955,
3798,
3612,
3453,
3411,
3304,
3155,
3018,
2786,
2821,
2710,
2401,
2356,
2221,
2188,
2078,
1981,
1913,
1722,
1768,
1614,
1545,
1496,
1369,
1386,
1255,
1107,
1080,
1084,
987,
913,
868,
793,
771,
704,
650,
600,
591,
515,
443,
441,
396,
336,
286,
271,
275,
207,
196,
158,
147,
99,
83,
57,
46,
20,
3,
4,
2,
1,
0,
4,
2,
2,
0,
3,
1,
1,
0,
1,
0,
1,
0,
0,
1,
0,
0,
0,
2,
0,
0,
0,
0,
0,
0,
0,
0,
1,
1,
0,
0,
0,
0,
0,
0,
0,
0,
0,
0,
0,
0,
0,
0,
0,
0,
0,
0,
1,
0,
0,
0,
0,
0,
0,
0,
0,
0,
0,
0,
0,
0,
0,
0,
0,
0,
0,
0,
0,
0,
0,
0,
0,
0,
0,
0,
0,
0,
0,
0,
0,
0,
0,
0,
0,
0,
0,
0,
0,
0,
0,
0,
0,
0,
0,
0,
0,
0,
0,
0,
0,
0,
0,
0,
0,
0,
0,
0,
0,
0,
0,
0,
0,
0,
0,
0,
0,
0,
0,
0,
0,
0,
0,
0,
0,
0,
0,
0,
0,
0,
0,
0,
0,
0,
0,
0,
0,
0,
0,
0,
0,
0,
0,
0,
0,
0,
0,
0,
0,
0,
0,
0,
0,
0,
0,
0,
0,
0,
0,
0,
0,
0,
0,
0,
0,
0,
0,
0,
0,
0,
0,
0,
0,
0,
0,
0,
0,
0,
0,
0,
0,
0,
0,
0,
#ENDOFDATA   :

File: Sm2O3 std.msa
#FORMAT      : EMSA/MAS Spectral Data File
#VERSION     : 1.0
#TITLE       : Sm2O3 standard for 'N132962' detector
#NPOINTS     : 4096
#NCOLUMNS    : 1
#XUNITS      : eV
#YUNITS      : counts
#DATATYPE    : Y
#SIGNALTYPE  : EDS
#XLABEL      : Energy (eV)
#YLABEL      : Counts
#XPERCHAN -eV: 9.99778
#OFFSET   -eV: 1.69135
#CHOFFSET    : 0
#DATE        : 26-Sep-2025
#TIME        : 17:01:00
#OWNER       : Unknown
#ELEVANGLE   : 35
#BEAMKV   -kV: 15
#LIVETIME  -s: 1680.62
#REALTIME  -s: 1797.22
#PROBECUR -nA: 1.21578
##WORKING -mm: 15
##D2STDCMP   : Sm2O3,(O:13.7639),(Sm:86.2361)
##SIMILAR    : 4.6
#SPECTRUM    :
148,
4440,
142992,
92868,
377697,
125644,
230036,
75554,
225700,
62218,
55401,
41460,
41114,
40927,
36644,
36852,
37275,
37694,
37132,
38287,
36328,
34866,
34464,
33684,
32709,
31814,
31238,
30863,
30984,
28253,
27703,
26930,
26544,
25129,
24467,
27136,
31321,
22564,
22134,
26402,
282109,
68549,
19595,
20449,
119778,
69584,
25029,
66827,
19676,
14093,
14807,
29903,
17071,
17414,
14332,
12433,
10877,
10645,
10283,
9845,
9627,
9335,
8976,
8600,
8601,
8170,
7802,
7587,
7371,
7078,
6688,
6615,
6339,
6015,
5773,
5768,
5150,
5061,
4883,
4538,
4422,
4234,
3888,
3798,
3470,
3248,
3095,
2859,
2716,
2464,
2282,
2155,
1898,
1748,
1668,
1494,
1328,
1146,
956,
859,
708,
641,
451,
328,
226,
112,
40,
23,
26,
21,
20,
14,
18,
10,
9,
6,
8,
11,
18,
10,
13,
20,
13,
17,
7,
12,
7,
13,
10,
13,
8,
13,
3,
5,
8,
5,
5,
5,
4,
1,
3,
3,
3,
4,
4,
4,
3,
2,
2,
1,
1,
2,
1,
2,
0,
0,
1,
0,
0,
0,
1,
1,
0,
0,
0,
0,
1,
0,
0,
0,
0,
0,
0,
0,
0,
1,
0,
0,
1,
0,
0,
0,
0,
0,
0,
0,
0,
0,
0,
0,
0,
0,
0,
1,
0,
0,
0,
0,
0,
0,
0,
0,
0,
0,
0,
0,
0,
0,
0,
0,
0,
0,
0,
0,
0,
0,
0,
0,
0,
0,
0,
0,
0,
0,
0,
0,
0,
0,
0,
0,
0,
0,
0,
0,
0,
0,
0,
0,
0,
0,
0,
0,
0,
0,
0,
0,
0,
0,
0,
0,
0,
0,
0,
0,
0,
0,
0,
0,
0,
0,
0,
0,
0,
0,
0,
0,
0,
0,
0,
0,
0,
0,
0,
0,
0,
0,
0,
0,
0,
0,
0,
0,
0,
0,
0,
0,
0,
0,
0,
0,
0,
0,
0,
0,
#ENDOFDATA   :

File: SmP5O14 std.msa
#FORMAT      : EMSA/MAS Spectral Data File
#VERSION     : 1.0
#TITLE       : SmP5O14 standard for 'N132962' detector
#NPOINTS     : 4096
#NCOLUMNS    : 1
#XUNITS      : eV
#YUNITS      : counts
#DATATYPE    : Y
#SIGNALTYPE  : EDS
#XLABEL      : Energy (eV)
#YLABEL      : Counts
#XPERCHAN -eV: 9.99778
#OFFSET   -eV: 1.69135
#CHOFFSET    : 0
#DATE        : 17-Mar-2025
#TIME        : 16:39:00
#OWNER       : Unknown
#ELEVANGLE   : 35
#BEAMKV   -kV: 15
#LIVETIME  -s: 1678.34
#REALTIME  -s: 1770.2
#PROBECUR -nA: 1.02671
##WORKING -mm: 15
##D2STDCMP   : SmP5O14,(O:42.3242),(P:29.2639),(Sm:28.4119)
##SIMILAR    : 1.5
#SPECTRUM    :
157,
2539,
111406,
60740,
455601,
27520,
72930,
38018,
109992,
40253,
37441,
30827,
32280,
34428,
428312,
129798,
22227,
19887,
21807,
19213,
18879,
17963,
17744,
17083,
16545,
15783,
15590,
14757,
14650,
14478,
13405,
12723,
12545,
11976,
11494,
12166,
12999,
10482,
10228,
11138,
85543,
23506,
8712,
8827,
37469,
23145,
9939,
22158,
7985,
6517,
6705,
11192,
6979,
7064,
6409,
5579,
4830,
4639,
4722,
4632,
4369,
4069,
4057,
3788,
3604,
3587,
3387,
3285,
3057,
3045,
2803,
2835,
2587,
2522,
2385,
2236,
2219,
2057,
1927,
1852,
1770,
1576,
1591,
1406,
1355,
1279,
1199,
1149,
1075,
1002,
868,
807,
748,
701,
629,
534,
479,
437,
379,
322,
278,
250,
199,
157,
117,
62,
40,
8,
5,
3,
4,
6,
4,
2,
3,
5,
2,
1,
3,
2,
1,
1,
1,
1,
1,
1,
2,
2,
2,
0,
2,
2,
2,
0,
4,
2,
1,
1,
0,
0,
1,
3,
0,
0,
0,
0,
0,
0,
0,
0,
0,
0,
1,
0,
0,
0,
0,
0,
0,
0,
0,
0,
0,
0,
0,
0,
0,
0,
0,
0,
0,
0,
0,
0,
0,
0,
0,
0,
0,
0,
0,
0,
0,
0,
0,
0,
1,
0,
0,
0,
0,
0,
0,
0,
0,
0,
0,
0,
0,
0,
0,
0,
0,
0,
0,
0,
0,
0,
0,
0,
0,
0,
0,
0,
0,
0,
0,
0,
0,
0,
0,
0,
0,
0,
0,
0,
0,
0,
0,
0,
0,
0,
0,
0,
0,
0,
0,
0,
0,
0,
0,
0,
0,
0,
0,
0,
0,
0,
0,
0,
0,
0,
0,
0,
0,
0,
0,
0,
0,
0,
0,
0,
0,
0,
0,
0,
0,
0,
0,
0,
0,
0,
0,
0,
0,
0,
0,
0,
0,
0,
0,
0,
0,
0,
0,
0,
0,
0,
0,
0,
0,
0,
0,
0,
#ENDOFDATA   :

File: Sn std.msa
#FORMAT      : EMSA/MAS Spectral Data File
#VERSION     : 1.0
#TITLE       : Sn standard for 'N132962' detector
#NPOINTS     : 4096
#NCOLUMNS    : 1
#XUNITS      : eV
#YUNITS      : counts
#DATATYPE    : Y
#SIGNALTYPE  : EDS
#XLABEL      : Energy (eV)
#YLABEL      : Counts
#XPERCHAN -eV: 9.99778
#OFFSET   -eV: 1.69135
#CHOFFSET    : 0
#DATE        : 26-Sep-2025
#TIME        : 15:36:00
#OWNER       : Unknown
#ELEVANGLE   : 35
#BEAMKV   -kV: 15
#LIVETIME  -s: 1680.03
#REALTIME  -s: 1834.38
#PROBECUR -nA: 1.22014
##WORKING -mm: 15
##D2STDCMP   : Sn,(Sn:100.0000)
##SIMILAR    : 1.9
#SPECTRUM    :
193,
14896,
126861,
304779,
59225,
61450,
41378,
42529,
48123,
54680,
59204,
67418,
79428,
67550,
62274,
58238,
57839,
56902,
54893,
53991,
51414,
54492,
85217,
58777,
276321,
638306,
499152,
181127,
183706,
52426,
50414,
46312,
29522,
25419,
25208,
25033,
24710,
24211,
24005,
23897,
23000,
22721,
22083,
21456,
21019,
20838,
21329,
19396,
18748,
19131,
18177,
18233,
17342,
16990,
16167,
15419,
15168,
14298,
13935,
13593,
12789,
12539,
12302,
11756,
11537,
11052,
10713,
10171,
9867,
9631,
9244,
8929,
8536,
8123,
7904,
7629,
7331,
6911,
6559,
6316,
5919,
5800,
5414,
5135,
4907,
4626,
4253,
4176,
3821,
3647,
3250,
3131,
2787,
2637,
2380,
2203,
2006,
1847,
1614,
1501,
1278,
1042,
891,
751,
577,
434,
237,
109,
48,
35,
36,
25,
32,
33,
24,
21,
17,
17,
16,
15,
19,
26,
26,
29,
22,
19,
14,
9,
10,
16,
8,
7,
5,
7,
13,
6,
11,
3,
3,
4,
7,
1,
8,
1,
2,
0,
4,
5,
2,
2,
6,
1,
3,
2,
2,
1,
2,
1,
0,
3,
0,
3,
1,
3,
0,
0,
0,
0,
0,
1,
0,
1,
0,
1,
1,
1,
0,
0,
0,
2,
1,
0,
0,
1,
0,
0,
0,
1,
0,
0,
0,
0,
0,
0,
0,
0,
0,
0,
0,
0,
0,
0,
0,
0,
0,
0,
0,
0,
0,
0,
0,
0,
0,
0,
0,
0,
0,
0,
0,
0,
0,
0,
0,
0,
0,
0,
0,
0,
0,
0,
0,
0,
0,
0,
0,
0,
0,
0,
0,
0,
0,
0,
0,
0,
0,
0,
0,
0,
0,
0,
0,
0,
0,
0,
0,
0,
0,
0,
0,
0,
0,
0,
0,
0,
0,
0,
0,
0,
0,
0,
0,
0,
0,
0,
0,
0,
0,
0,
0,
0,
0,
0,
0,
0,
0,
0,
0,
0,
0,
0,
0,
0,
0,
0,
#ENDOFDATA   :