Folder: spex_quant/N132962/Standards/15 keV (part 5)

File: Mn std.msa
#FORMAT      : EMSA/MAS Spectral Data File
#VERSION     : 1.0
#TITLE       : Mn standard for 'N132962' detector
#NPOINTS     : 4096
#NCOLUMNS    : 1
#XUNITS      : eV
#YUNITS      : counts
#DATATYPE    : Y
#SIGNALTYPE  : EDS
#XLABEL      : Energy (eV)
#YLABEL      : Counts
#XPERCHAN -eV: 9.99778
#OFFSET   -eV: 1.69135
#CHOFFSET    : 0
#DATE        : 30-Sep-2025
#TIME        : 17:14:00
#OWNER       : Unknown
#ELEVANGLE   : 35
#BEAMKV   -kV: 15
#LIVETIME  -s: 1200.72
#REALTIME  -s: 1285.91
#PROBECUR -nA: 1.23069
##WORKING -mm: 15
##D2STDCMP   : Mn,(Mn:100.0000)
##SIMILAR    : 7.4
#SPECTRUM    :
123,
2347,
67326,
56389,
470445,
82612,
17137,
21674,
24729,
32184,
30175,
29796,
31437,
31698,
28051,
27299,
26743,
25877,
24946,
24632,
23007,
22631,
21362,
20702,
19679,
18818,
18448,
17587,
16774,
16884,
16897,
14877,
15029,
13849,
13463,
12993,
12596,
11940,
11248,
11072,
11625,
29761,
675413,
63932,
10072,
11592,
74315,
32610,
6779,
6531,
6527,
6382,
6029,
5949,
5645,
5559,
5241,
5269,
5138,
4778,
4739,
4536,
4343,
4259,
4004,
3940,
3743,
3446,
3488,
3350,
3278,
3091,
2803,
2783,
2785,
2713,
2515,
2374,
2166,
2180,
1976,
1842,
1738,
1748,
2094,
1622,
1329,
1258,
1237,
1195,
1062,
950,
855,
797,
729,
676,
573,
528,
473,
402,
340,
292,
218,
205,
152,
95,
54,
28,
15,
10,
17,
17,
10,
7,
6,
1,
5,
6,
13,
5,
6,
6,
13,
10,
14,
2,
6,
7,
5,
3,
3,
6,
6,
6,
4,
4,
5,
3,
5,
1,
0,
1,
0,
2,
2,
0,
1,
1,
0,
0,
0,
0,
0,
1,
0,
0,
0,
0,
0,
0,
0,
1,
0,
0,
1,
0,
0,
0,
0,
0,
0,
0,
0,
0,
0,
0,
0,
1,
0,
0,
0,
0,
0,
0,
0,
0,
0,
0,
0,
0,
0,
0,
0,
0,
0,
0,
0,
0,
0,
0,
0,
0,
0,
0,
0,
0,
0,
0,
0,
0,
0,
0,
0,
0,
0,
0,
0,
0,
0,
0,
0,
0,
0,
0,
0,
0,
0,
0,
0,
0,
0,
0,
0,
0,
0,
0,
0,
0,
0,
0,
0,
0,
0,
0,
0,
0,
0,
0,
0,
0,
0,
0,
0,
0,
0,
0,
0,
0,
0,
0,
0,
0,
0,
0,
0,
0,
0,
0,
0,
0,
0,
0,
0,
0,
0,
0,
0,
0,
0,
0,
0,
0,
0,
0,
0,
0,
0,
0,
0,
0,
0,
0,
0,
0,
#ENDOFDATA   :

File: Mo std.msa
#FORMAT      : EMSA/MAS Spectral Data File
#VERSION     : 1.0
#TITLE       : Mo standard for 'N132962' detector
#NPOINTS     : 4096
#NCOLUMNS    : 1
#XUNITS      : eV
#YUNITS      : counts
#DATATYPE    : Y
#SIGNALTYPE  : EDS
#XLABEL      : Energy (eV)
#YLABEL      : Counts
#XPERCHAN -eV: 9.99778
#OFFSET   -eV: 1.69135
#CHOFFSET    : 0
#DATE        : 26-Sep-2025
#TIME        : 14:32:00
#OWNER       : Unknown
#ELEVANGLE   : 35
#BEAMKV   -kV: 15
#LIVETIME  -s: 2162.79
#REALTIME  -s: 2376.99
#PROBECUR -nA: 1.22024
##WORKING -mm: 15
##D2STDCMP   : Mo,(Mo:100.0000)
##SIMILAR    : 1.1
#SPECTRUM    :
235,
107233,
86208,
38065,
107685,
68746,
73481,
81768,
89031,
93053,
96932,
98794,
101176,
100624,
131603,
138818,
1276877,
1384853,
237721,
61387,
54567,
39079,
38048,
38624,
38564,
38819,
38223,
37765,
37567,
37036,
36320,
35669,
35632,
39621,
35990,
32917,
31322,
30640,
29858,
29644,
27968,
27184,
26832,
25855,
25179,
24879,
25653,
22958,
21776,
21367,
21267,
20358,
19549,
19131,
18094,
17572,
16971,
16249,
16060,
15613,
14735,
14246,
13860,
13371,
12577,
12444,
12122,
11710,
11137,
10838,
10394,
9967,
9555,
9128,
8732,
8245,
7960,
7643,
7109,
6810,
6530,
6291,
5783,
5684,
5261,
4844,
4737,
4360,
4096,
3877,
3640,
3254,
3057,
2801,
2638,
2318,
2152,
1917,
1715,
1572,
1297,
1081,
945,
809,
623,
436,
263,
98,
30,
37,
33,
27,
21,
29,
17,
25,
21,
11,
11,
10,
11,
18,
14,
20,
11,
4,
6,
9,
10,
12,
11,
6,
10,
9,
4,
7,
3,
2,
4,
6,
4,
4,
4,
5,
4,
5,
1,
3,
5,
4,
5,
2,
3,
1,
3,
3,
1,
1,
0,
2,
1,
2,
0,
2,
1,
1,
0,
4,
2,
0,
0,
2,
1,
0,
2,
2,
0,
0,
0,
0,
0,
0,
0,
0,
0,
0,
1,
0,
0,
0,
0,
1,
1,
0,
0,
0,
0,
0,
0,
1,
0,
0,
0,
0,
0,
0,
0,
0,
0,
0,
0,
0,
0,
0,
0,
0,
0,
0,
0,
0,
0,
0,
0,
0,
0,
0,
0,
0,
0,
0,
0,
0,
0,
0,
0,
0,
0,
0,
0,
0,
0,
0,
0,
0,
0,
0,
0,
0,
0,
0,
0,
0,
0,
0,
0,
0,
0,
0,
0,
0,
0,
0,
0,
0,
0,
0,
0,
0,
0,
0,
0,
0,
0,
0,
0,
0,
0,
0,
0,
0,
0,
0,
0,
0,
0,
0,
0,
0,
0,
0,
0,
0,
0,
0,
#ENDOFDATA   :

File: Molybdenite std.msa
#FORMAT      : EMSA/MAS Spectral Data File
#VERSION     : 1.0
#TITLE       : 'Molybdenite' standard for 'N132962' detector
#NPOINTS     : 4096
#NCOLUMNS    : 1
#XUNITS      : eV
#YUNITS      : counts
#DATATYPE    : Y
#SIGNALTYPE  : EDS
#XLABEL      : Energy (eV)
#YLABEL      : Counts
#XPERCHAN -eV: 9.99778
#OFFSET   -eV: 1.69135
#CHOFFSET    : 0
#DATE        : 28-Sep-2025
#TIME        : 20:33:00
#OWNER       : Unknown
#ELEVANGLE   : 35
#BEAMKV   -kV: 15
#LIVETIME  -s: 1680.31
#REALTIME  -s: 1839.165
#PROBECUR -nA: 1.21285
##WORKING -mm: 15
##D2STDCMP   : 'Molybdenite',(S:40.0575),(Mo:59.9425)
##SIMILAR    : 1.4
#SPECTRUM    :
172,
26116,
131244,
22426,
96510,
48906,
52770,
57777,
61953,
64253,
66116,
66261,
66052,
64815,
76761,
81787,
1081127,
994900,
153799,
32377,
30334,
24014,
23588,
23484,
23421,
22923,
23072,
22378,
22383,
21712,
20978,
21134,
21060,
27545,
21814,
18672,
18134,
17161,
16892,
16601,
15907,
15434,
15069,
14731,
13825,
13647,
13674,
12665,
12081,
11860,
11453,
11031,
10580,
10361,
9918,
9427,
9415,
8916,
8688,
8279,
8042,
7757,
7341,
7126,
6854,
6490,
6206,
6104,
5987,
5777,
5382,
5122,
4754,
4824,
4639,
4174,
4164,
3889,
3722,
3557,
3341,
3103,
3071,
2805,
2656,
2491,
2306,
2216,
2039,
1905,
1768,
1597,
1482,
1363,
1199,
1119,
1030,
882,
807,
676,
609,
491,
444,
346,
240,
158,
96,
33,
21,
7,
5,
17,
8,
13,
14,
7,
8,
8,
10,
5,
7,
10,
4,
6,
3,
4,
2,
2,
8,
3,
1,
3,
0,
2,
1,
3,
3,
5,
4,
2,
3,
0,
1,
0,
1,
2,
0,
0,
2,
2,
0,
2,
0,
1,
0,
0,
0,
0,
0,
1,
0,
0,
1,
1,
2,
0,
1,
0,
0,
0,
0,
0,
0,
0,
0,
0,
0,
0,
0,
0,
0,
0,
0,
0,
0,
0,
0,
0,
0,
0,
0,
0,
0,
0,
0,
0,
0,
0,
0,
0,
0,
0,
0,
0,
0,
0,
0,
0,
0,
0,
0,
0,
0,
0,
0,
0,
0,
0,
0,
0,
0,
0,
0,
0,
0,
0,
0,
0,
0,
0,
0,
0,
0,
0,
0,
0,
0,
0,
0,
0,
0,
0,
0,
0,
0,
0,
0,
0,
0,
0,
0,
0,
0,
0,
0,
0,
0,
0,
0,
0,
0,
0,
0,
0,
0,
0,
0,
0,
0,
0,
0,
0,
0,
0,
0,
0,
0,
0,
0,
0,
0,
0,
0,
0,
0,
0,
0,
0,
0,
0,
0,
0,
0,
0,
#ENDOFDATA   :

File: NaF std.msa
#FORMAT      : EMSA/MAS Spectral Data File
#VERSION     : 1.0
#TITLE       : NaF standard for 'N132962' detector
#NPOINTS     : 4096
#NCOLUMNS    : 1
#XUNITS      : eV
#YUNITS      : counts
#DATATYPE    : Y
#SIGNALTYPE  : EDS
#XLABEL      : Energy (eV)
#YLABEL      : Counts
#XPERCHAN -eV: 9.99778
#OFFSET   -eV: 1.69135
#CHOFFSET    : 0
#DATE        : 21-Mar-2025
#TIME        : 14:21:00
#OWNER       : Unknown
#ELEVANGLE   : 35
#BEAMKV   -kV: 15
#LIVETIME  -s: 958.809
#REALTIME  -s: 1032.42
#PROBECUR -nA: 1.03702
##WORKING -mm: 15
##D2STDCMP   : NaF,(F:45.2470),(Na:54.7530)
##SIMILAR    : 1.3
#SPECTRUM    :
105,
1391,
27028,
22250,
53604,
1213388,
14973,
295620,
68605,
8511,
10138,
9096,
15853,
9524,
8391,
10973,
7851,
7638,
7219,
7244,
6705,
6408,
6238,
5910,
5485,
5288,
5296,
4773,
4640,
4407,
4273,
4024,
3814,
3792,
3451,
3372,
3178,
3144,
2929,
2838,
2701,
2637,
2606,
2376,
2296,
2258,
2161,
1968,
1942,
1838,
1759,
1699,
1621,
1603,
1493,
1444,
1360,
1407,
1234,
1194,
1159,
1099,
1068,
987,
988,
903,
876,
871,
767,
794,
743,
650,
639,
659,
626,
557,
538,
506,
497,
430,
396,
396,
390,
349,
291,
283,
274,
245,
230,
199,
194,
181,
172,
150,
124,
114,
125,
80,
71,
72,
65,
54,
43,
31,
24,
16,
6,
4,
1,
1,
0,
0,
0,
1,
0,
0,
0,
0,
0,
0,
0,
0,
0,
0,
0,
0,
0,
0,
0,
0,
0,
1,
0,
0,
0,
0,
0,
1,
0,
0,
0,
0,
0,
0,
0,
0,
0,
0,
0,
0,
0,
0,
0,
0,
0,
0,
0,
0,
0,
0,
0,
0,
0,
0,
0,
0,
0,
0,
0,
0,
0,
0,
0,
0,
0,
0,
0,
0,
0,
0,
0,
0,
0,
0,
0,
0,
0,
0,
0,
0,
0,
0,
0,
0,
0,
0,
0,
0,
0,
0,
0,
0,
0,
0,
0,
0,
0,
0,
0,
0,
0,
0,
0,
0,
0,
0,
0,
0,
0,
0,
0,
0,
0,
0,
0,
0,
0,
0,
0,
0,
0,
0,
0,
0,
0,
0,
0,
0,
0,
0,
0,
0,
0,
0,
0,
0,
0,
0,
0,
0,
0,
0,
0,
0,
0,
0,
0,
0,
0,
0,
0,
0,
0,
0,
0,
0,
0,
0,
0,
0,
0,
0,
0,
0,
0,
0,
0,
0,
0,
0,
0,
0,
0,
0,
0,
0,
0,
0,
0,
0,
0,
0,
0,
0,
#ENDOFDATA   :

File: Nb std.msa
#FORMAT      : EMSA/MAS Spectral Data File
#VERSION     : 1.0
#TITLE       : Nb standard for 'N132962' detector
#NPOINTS     : 4096
#NCOLUMNS    : 1
#XUNITS      : eV
#YUNITS      : counts
#DATATYPE    : Y
#SIGNALTYPE  : EDS
#XLABEL      : Energy (eV)
#YLABEL      : Counts
#XPERCHAN -eV: 9.99778
#OFFSET   -eV: 1.69135
#CHOFFSET    : 0
#DATE        : 26-Sep-2025
#TIME        : 13:49:00
#OWNER       : Unknown
#ELEVANGLE   : 35
#BEAMKV   -kV: 15
#LIVETIME  -s: 1681.3
#REALTIME  -s: 1849.17
#PROBECUR -nA: 1.2198
##WORKING -mm: 15
##D2STDCMP   : Nb,(Nb:100.0000)
##SIMILAR    : 1.3
#SPECTRUM    :
164,
94534,
58327,
82087,
65104,
50946,
59415,
67277,
71493,
75296,
78918,
80922,
82242,
96974,
124915,
722043,
1288052,
176204,
39038,
45719,
29987,
30354,
31135,
30927,
31171,
30774,
30810,
30551,
29787,
29550,
29180,
33146,
30551,
26913,
25939,
25237,
24505,
23641,
23428,
22628,
21983,
21218,
20977,
20126,
19532,
19308,
19576,
17880,
17299,
16657,
16226,
15792,
15011,
14908,
14313,
13622,
13148,
12772,
12595,
11848,
11661,
11316,
10670,
10338,
9900,
9663,
9374,
9035,
8498,
8065,
7928,
7726,
7383,
7019,
6760,
6474,
6070,
5845,
5548,
5298,
4998,
4783,
4568,
4237,
3905,
3874,
3535,
3389,
3081,
2950,
2734,
2569,
2356,
2137,
1940,
1799,
1650,
1473,
1280,
1170,
1010,
867,
723,
601,
449,
303,
187,
68,
21,
18,
26,
19,
20,
19,
13,
12,
12,
13,
8,
11,
11,
20,
10,
11,
7,
12,
2,
2,
7,
7,
7,
8,
8,
6,
6,
5,
2,
5,
1,
4,
1,
2,
3,
2,
4,
4,
1,
4,
2,
1,
3,
4,
2,
2,
3,
0,
0,
2,
1,
0,
1,
0,
0,
0,
0,
0,
2,
1,
1,
0,
0,
0,
0,
0,
0,
0,
2,
0,
0,
0,
1,
0,
0,
0,
0,
0,
0,
0,
0,
0,
0,
0,
0,
0,
0,
0,
0,
0,
0,
0,
0,
0,
0,
0,
0,
0,
0,
0,
0,
0,
0,
0,
0,
0,
0,
0,
0,
0,
0,
0,
0,
0,
0,
0,
0,
0,
0,
0,
0,
0,
0,
0,
0,
0,
0,
0,
0,
0,
0,
0,
0,
0,
0,
0,
0,
0,
0,
0,
0,
0,
0,
0,
0,
0,
0,
0,
0,
0,
0,
0,
0,
0,
0,
0,
0,
0,
0,
0,
0,
0,
0,
0,
0,
0,
0,
0,
0,
0,
0,
0,
0,
0,
0,
0,
0,
0,
0,
0,
0,
0,
0,
0,
0,
0,
#ENDOFDATA   :

File: NdF3 std.msa
#FORMAT      : EMSA/MAS Spectral Data File
#VERSION     : 1.0
#TITLE       : NdF3 standard for 'N132962' detector
#NPOINTS     : 4096
#NCOLUMNS    : 1
#XUNITS      : eV
#YUNITS      : counts
#DATATYPE    : Y
#SIGNALTYPE  : EDS
#XLABEL      : Energy (eV)
#YLABEL      : Counts
#XPERCHAN -eV: 9.99778
#OFFSET   -eV: 1.69135
#CHOFFSET    : 0
#DATE        : 26-Sep-2025
#TIME        : 16:50:00
#OWNER       : Unknown
#ELEVANGLE   : 35
#BEAMKV   -kV: 15
#LIVETIME  -s: 1196.88
#REALTIME  -s: 1286.98
#PROBECUR -nA: 1.21578
##WORKING -mm: 15
##D2STDCMP   : NdF3,(F:28.3224),(Nd:71.6776)
##SIMILAR    : 4.3
#SPECTRUM    :
113,
3659,
85740,
53000,
83382,
839702,
42884,
154913,
31095,
37545,
28201,
30341,
29221,
29318,
26265,
26367,
26863,
26677,
26396,
26069,
25197,
24943,
24097,
23516,
22870,
23328,
21677,
20942,
20586,
19837,
18906,
18714,
18293,
26909,
17888,
16677,
18392,
187472,
74667,
16249,
25458,
123648,
30301,
33205,
32547,
12037,
14138,
25655,
12245,
14906,
10495,
9702,
8653,
8581,
8058,
7731,
7589,
7303,
7297,
6935,
6742,
6605,
6214,
6167,
5969,
5561,
5396,
5288,
5279,
5123,
4813,
4618,
4308,
4117,
4127,
3920,
3644,
3480,
3492,
3211,
3038,
2930,
2800,
2523,
2464,
2317,
2158,
1983,
1974,
1748,
1616,
1532,
1432,
1289,
1161,
1122,
944,
895,
736,
695,
622,
495,
446,
329,
227,
162,
80,
27,
21,
11,
9,
11,
7,
15,
12,
11,
5,
13,
7,
7,
9,
22,
7,
6,
12,
3,
7,
4,
4,
6,
3,
4,
4,
3,
6,
4,
7,
2,
2,
3,
1,
0,
4,
2,
2,
0,
2,
0,
2,
3,
1,
4,
1,
1,
0,
0,
0,
0,
0,
2,
1,
0,
0,
1,
0,
0,
0,
0,
0,
1,
0,
1,
0,
0,
0,
0,
0,
0,
0,
0,
1,
0,
0,
0,
1,
0,
0,
0,
0,
0,
0,
0,
0,
0,
0,
0,
0,
0,
0,
0,
0,
0,
0,
0,
0,
0,
0,
0,
0,
0,
0,
0,
0,
0,
0,
0,
0,
0,
0,
0,
0,
0,
0,
0,
0,
0,
0,
0,
0,
0,
0,
0,
0,
0,
0,
0,
0,
0,
0,
0,
0,
0,
0,
0,
0,
0,
0,
0,
0,
0,
0,
0,
0,
0,
0,
0,
0,
0,
0,
0,
0,
0,
0,
0,
0,
0,
0,
0,
0,
0,
0,
0,
0,
0,
0,
0,
0,
0,
0,
0,
0,
0,
0,
0,
0,
0,
0,
0,
0,
0,
0,
0,
0,
0,
#ENDOFDATA   :

File: NdP5O14 std.msa
#FORMAT      : EMSA/MAS Spectral Data File
#VERSION     : 1.0
#TITLE       : NdP5O14 standard for 'N132962' detector
#NPOINTS     : 4096
#NCOLUMNS    : 1
#XUNITS      : eV
#YUNITS      : counts
#DATATYPE    : Y
#SIGNALTYPE  : EDS
#XLABEL      : Energy (eV)
#YLABEL      : Counts
#XPERCHAN -eV: 9.99778
#OFFSET   -eV: 1.69135
#CHOFFSET    : 0
#DATE        : 17-Mar-2025
#TIME        : 16:49:00
#OWNER       : Unknown
#ELEVANGLE   : 35
#BEAMKV   -kV: 15
#LIVETIME  -s: 1438.26
#REALTIME  -s: 1517.13
#PROBECUR -nA: 1.02671
##WORKING -mm: 15
##D2STDCMP   : NdP5O14,(O:42.8192),(P:29.6061),(Nd:27.5746)
##SIMILAR    : 1.2
#SPECTRUM    :
144,
2104,
93661,
53104,
404685,
37801,
27579,
89642,
27301,
31557,
25853,
26681,
27714,
29995,
378858,
114253,
18554,
16591,
18691,
16303,
15549,
15275,
14609,
14302,
13791,
13820,
12715,
12311,
11967,
12074,
10905,
10643,
10219,
13249,
9724,
9337,
9799,
66781,
28701,
8178,
11485,
45044,
12799,
13930,
13433,
6336,
6503,
11166,
6186,
7309,
5472,
5268,
4793,
4499,
4427,
4277,
4146,
3823,
3812,
3643,
3505,
3376,
3276,
3108,
3023,
2898,
2714,
2766,
2529,
2500,
2410,
2289,
2175,
2088,
1902,
1814,
1728,
1671,
1569,
1451,
1431,
1340,
1251,
1179,
1088,
967,
956,
906,
835,
778,
708,
635,
632,
563,
515,
471,
379,
333,
343,
277,
216,
193,
174,
114,
104,
50,
34,
4,
3,
0,
1,
5,
2,
0,
0,
2,
1,
1,
1,
0,
1,
2,
2,
1,
2,
0,
0,
2,
2,
3,
1,
1,
1,
1,
0,
1,
1,
0,
1,
1,
1,
0,
0,
0,
0,
0,
0,
0,
0,
0,
1,
1,
0,
0,
0,
0,
0,
0,
0,
1,
0,
0,
0,
0,
0,
0,
0,
0,
0,
0,
0,
1,
0,
0,
0,
0,
0,
0,
0,
0,
0,
0,
0,
0,
0,
0,
0,
0,
0,
0,
0,
0,
0,
0,
0,
0,
0,
0,
0,
0,
0,
0,
0,
0,
0,
0,
0,
0,
0,
0,
0,
0,
0,
0,
0,
0,
0,
0,
0,
0,
0,
0,
0,
0,
0,
0,
0,
0,
0,
0,
0,
0,
0,
0,
0,
0,
0,
0,
0,
0,
0,
0,
0,
0,
0,
0,
0,
0,
0,
0,
0,
0,
0,
0,
0,
0,
0,
0,
0,
0,
0,
0,
0,
0,
0,
0,
0,
0,
0,
0,
0,
0,
0,
0,
0,
0,
0,
0,
0,
0,
0,
0,
0,
0,
0,
0,
0,
0,
0,
0,
0,
0,
0,
0,
#ENDOFDATA   :

File: Ni std.msa
#FORMAT      : EMSA/MAS Spectral Data File
#VERSION     : 1.0
#TITLE       : Ni standard for 'N132962' detector
#NPOINTS     : 4096
#NCOLUMNS    : 1
#XUNITS      : eV
#YUNITS      : counts
#DATATYPE    : Y
#SIGNALTYPE  : EDS
#XLABEL      : Energy (eV)
#YLABEL      : Counts
#XPERCHAN -eV: 9.99778
#OFFSET   -eV: 1.69135
#CHOFFSET    : 0
#DATE        : 26-Sep-2025
#TIME        : 22:59:00
#OWNER       : Unknown
#ELEVANGLE   : 35
#BEAMKV   -kV: 15
#LIVETIME  -s: 2161.41
#REALTIME  -s: 2328.68
#PROBECUR -nA: 1.21516
##WORKING -mm: 15
##D2STDCMP   : Ni,(Ni:100.0000)
##SIMILAR    : 1.1
#SPECTRUM    :
207,
3586,
74782,
72724,
113553,
420933,
2742918,
42291,
35060,
40871,
45554,
50186,
57880,
54531,
48209,
49181,
48715,
47798,
46476,
45759,
44435,
42883,
41392,
40177,
38442,
37185,
36251,
34667,
33529,
32462,
30910,
30253,
28774,
27789,
26668,
25927,
24947,
23812,
23525,
22896,
21404,
22249,
22983,
19924,
18607,
18920,
20299,
16759,
16076,
15828,
15894,
15655,
22933,
473447,
225690,
13721,
12612,
12947,
21828,
93208,
18354,
8983,
8485,
8496,
8239,
8178,
7613,
7440,
7268,
6915,
6709,
6478,
6155,
5967,
5533,
5285,
5137,
4888,
4635,
4309,
4183,
3860,
3801,
3453,
3273,
3114,
2940,
2785,
2556,
2298,
2219,
2136,
1800,
1739,
1601,
1489,
1295,
1143,
917,
879,
800,
678,
568,
451,
346,
269,
260,
272,
58,
27,
20,
40,
73,
50,
18,
11,
15,
12,
8,
16,
8,
14,
17,
17,
15,
14,
13,
15,
10,
12,
13,
8,
9,
10,
4,
10,
8,
5,
7,
4,
7,
11,
6,
3,
3,
7,
2,
5,
1,
3,
1,
4,
3,
3,
2,
0,
2,
2,
1,
1,
0,
0,
0,
0,
0,
0,
1,
0,
0,
0,
0,
0,
0,
0,
0,
0,
0,
0,
0,
0,
0,
0,
0,
0,
0,
0,
0,
0,
0,
0,
0,
0,
0,
0,
0,
0,
0,
0,
0,
0,
0,
0,
0,
0,
0,
0,
0,
0,
0,
0,
0,
0,
0,
0,
0,
0,
0,
0,
0,
0,
0,
0,
0,
0,
0,
0,
0,
0,
0,
0,
0,
0,
0,
0,
0,
0,
0,
0,
0,
0,
0,
0,
0,
0,
0,
0,
0,
0,
0,
0,
0,
0,
0,
0,
0,
0,
0,
0,
0,
0,
0,
0,
0,
0,
0,
0,
0,
0,
0,
0,
0,
0,
0,
0,
0,
0,
0,
0,
0,
0,
0,
0,
0,
0,
0,
0,
0,
0,
0,
0,
0,
0,
0,
0,
#ENDOFDATA   :

File: NIST K227 std.msa
#FORMAT      : EMSA/MAS Spectral Data File
#VERSION     : 1.0
#TITLE       : 'NIST K227' standard for 'N132962' detector
#NPOINTS     : 4096
#NCOLUMNS    : 1
#XUNITS      : eV
#YUNITS      : counts
#DATATYPE    : Y
#SIGNALTYPE  : EDS
#XLABEL      : Energy (eV)
#YLABEL      : Counts
#XPERCHAN -eV: 9.99778
#OFFSET   -eV: 1.69135
#CHOFFSET    : 0
#DATE        : 26-Sep-2025
#TIME        : 18:47:00
#OWNER       : Unknown
#ELEVANGLE   : 35
#BEAMKV   -kV: 15
#LIVETIME  -s: 2155.28
#REALTIME  -s: 2340.224
#PROBECUR -nA: 1.21628
##WORKING -mm: 15
##D2STDCMP   : 'NIST K227',(O:16.3855),(Si:9.3493),(Pb:74.2652)
##SIMILAR    : 1.0
#SPECTRUM    :
204,
7234,
128016,
72125,
253114,
85001,
73545,
77406,
82107,
87175,
91189,
95139,
303248,
268831,
77018,
77801,
156426,
1190560,
198101,
101897,
44964,
49146,
60208,
45332,
41843,
42520,
40643,
40882,
38774,
39179,
38746,
37212,
36609,
36178,
36716,
34447,
33254,
32505,
32293,
32443,
30124,
29390,
28886,
28056,
26886,
27547,
29822,
24981,
24149,
23658,
23683,
22546,
21226,
21489,
20375,
19736,
19000,
18429,
17952,
17441,
16708,
16245,
15567,
15367,
14628,
14547,
14421,
13100,
12833,
12099,
11979,
11401,
11032,
10355,
11450,
21979,
14839,
8989,
8287,
8114,
7589,
7233,
6824,
6384,
6173,
5751,
5528,
5374,
4879,
4986,
6474,
4412,
3766,
3511,
2917,
2717,
2531,
2146,
2041,
1776,
1585,
1369,
1144,
920,
716,
492,
284,
100,
25,
27,
30,
42,
22,
23,
29,
22,
27,
12,
18,
16,
23,
17,
15,
20,
14,
13,
12,
15,
7,
11,
10,
7,
10,
12,
8,
15,
6,
5,
6,
6,
3,
8,
4,
3,
12,
2,
7,
2,
2,
7,
3,
4,
2,
2,
3,
5,
2,
4,
2,
2,
1,
3,
0,
1,
2,
0,
2,
0,
1,
0,
0,
1,
0,
0,
2,
4,
0,
0,
0,
1,
0,
0,
2,
0,
0,
0,
0,
0,
0,
0,
0,
0,
0,
0,
0,
1,
0,
0,
0,
0,
0,
0,
0,
0,
0,
0,
0,
0,
0,
0,
0,
0,
0,
0,
0,
0,
0,
0,
0,
0,
0,
0,
0,
0,
0,
0,
0,
0,
0,
0,
0,
0,
0,
0,
0,
0,
0,
0,
0,
0,
0,
0,
0,
0,
0,
0,
0,
0,
0,
0,
0,
0,
0,
0,
0,
0,
0,
0,
0,
0,
0,
0,
0,
0,
0,
0,
0,
0,
0,
0,
0,
0,
0,
0,
0,
0,
0,
0,
0,
0,
0,
0,
0,
0,
0,
0,
0,
0,
0,
0,
0,
0,
0,
0,
#ENDOFDATA   :

File: PbO std.msa
#FORMAT      : EMSA/MAS Spectral Data File
#VERSION     : 1.0
#TITLE       : PbO standard for 'N132962' detector
#NPOINTS     : 4096
#NCOLUMNS    : 1
#XUNITS      : eV
#YUNITS      : counts
#DATATYPE    : Y
#SIGNALTYPE  : EDS
#XLABEL      : Energy (eV)
#YLABEL      : Counts
#XPERCHAN -eV: 9.99778
#OFFSET   -eV: 1.69135
#CHOFFSET    : 0
#DATE        : 25-Sep-2025
#TIME        : 17:58:00
#OWNER       : Unknown
#ELEVANGLE   : 35
#BEAMKV   -kV: 15
#LIVETIME  -s: 1446.4
#REALTIME  -s: 1591.31
#PROBECUR -nA: 1.20838
##WORKING -mm: 15
##D2STDCMP   : PbO,(O:7.1680),(Pb:92.8320)
##SIMILAR    : 17.9
#SPECTRUM    :
150,
10264,
149472,
51635,
133725,
92869,
56711,
60589,
62689,
82073,
71363,
71276,
74188,
149587,
67358,
68234,
147722,
1107430,
182991,
97651,
37632,
39923,
49397,
36674,
33978,
34664,
32670,
33488,
31856,
31542,
31477,
31251,
32939,
30654,
31856,
30216,
28828,
28091,
27383,
27025,
26381,
25775,
25233,
24413,
23471,
23261,
23081,
22066,
21623,
20660,
20303,
19629,
19145,
19004,
18248,
17260,
16972,
16647,
16203,
15368,
14960,
14423,
14231,
13651,
13168,
13109,
12456,
11681,
11482,
10977,
10423,
9913,
9836,
9370,
10320,
19859,
13165,
7857,
7531,
7157,
6710,
6405,
5975,
5671,
5395,
5150,
4881,
4596,
4257,
4374,
5724,
3949,
3289,
3038,
2530,
2358,
2140,
1896,
1663,
1452,
1282,
1076,
961,
688,
589,
448,
241,
94,
36,
27,
37,
31,
33,
21,
21,
26,
28,
18,
21,
12,
20,
18,
15,
23,
16,
15,
23,
15,
14,
16,
8,
7,
12,
7,
14,
8,
11,
6,
6,
8,
10,
6,
1,
2,
9,
6,
3,
8,
4,
4,
1,
3,
2,
5,
5,
5,
4,
3,
2,
4,
5,
4,
0,
3,
1,
2,
3,
1,
2,
1,
0,
0,
0,
1,
3,
0,
2,
1,
0,
1,
0,
1,
0,
2,
0,
0,
0,
0,
0,
0,
0,
0,
0,
0,
0,
0,
0,
0,
0,
0,
1,
1,
0,
0,
0,
0,
0,
0,
0,
0,
0,
0,
0,
0,
0,
0,
0,
0,
0,
0,
0,
0,
0,
0,
0,
0,
0,
0,
0,
0,
0,
0,
0,
0,
0,
0,
0,
0,
0,
0,
0,
0,
0,
0,
0,
0,
0,
0,
0,
0,
0,
0,
0,
0,
0,
0,
0,
0,
0,
0,
0,
0,
0,
0,
0,
0,
0,
0,
0,
0,
0,
0,
0,
0,
0,
0,
0,
0,
0,
0,
0,
0,
0,
0,
0,
0,
0,
0,
0,
0,
0,
0,
0,
0,
#ENDOFDATA   :

File: Pd std.msa
#FORMAT      : EMSA/MAS Spectral Data File
#VERSION     : 1.0
#TITLE       : Pd standard for 'N132962' detector
#NPOINTS     : 4096
#NCOLUMNS    : 1
#XUNITS      : eV
#YUNITS      : counts
#DATATYPE    : Y
#SIGNALTYPE  : EDS
#XLABEL      : Energy (eV)
#YLABEL      : Counts
#XPERCHAN -eV: 9.99778
#OFFSET   -eV: 1.69135
#CHOFFSET    : 0
#DATE        : 26-Sep-2025
#TIME        : 14:11:00
#OWNER       : Unknown
#ELEVANGLE   : 35
#BEAMKV   -kV: 15
#LIVETIME  -s: 1921.74
#REALTIME  -s: 2109.21
#PROBECUR -nA: 1.21991
##WORKING -mm: 15
##D2STDCMP   : Pd,(Pd:100.0000)
##SIMILAR    : 1.1
#SPECTRUM    :
196,
17517,
624159,
40447,
45739,
46240,
53887,
61925,
92553,
84430,
80066,
81818,
84576,
84196,
72627,
73916,
79877,
71655,
137900,
103390,
1304193,
572160,
319536,
141429,
76499,
44072,
36695,
32576,
32929,
32754,
32357,
31794,
31435,
30955,
30779,
29873,
29333,
28647,
28041,
27778,
27708,
27959,
27352,
25623,
24492,
23935,
24182,
21902,
21248,
20641,
20026,
19538,
18960,
18775,
18139,
17302,
16804,
16403,
15603,
15210,
14553,
14178,
13738,
13033,
12885,
12570,
11789,
11268,
10929,
10612,
10263,
10186,
9743,
9109,
8804,
8229,
7847,
7523,
7129,
6854,
6649,
6215,
6026,
5647,
5292,
4954,
4591,
4399,
4028,
3819,
3713,
3309,
3094,
2833,
2686,
2375,
2230,
1925,
1782,
1543,
1433,
1214,
1020,
844,
634,
489,
249,
106,
43,
30,
29,
29,
33,
30,
31,
21,
12,
31,
18,
17,
14,
18,
24,
23,
16,
17,
10,
18,
17,
8,
9,
9,
12,
10,
8,
9,
9,
4,
4,
3,
3,
1,
0,
3,
5,
6,
5,
3,
1,
2,
5,
2,
2,
1,
1,
3,
1,
4,
1,
0,
0,
2,
1,
0,
1,
1,
0,
2,
0,
1,
0,
0,
0,
1,
0,
1,
0,
1,
2,
1,
1,
0,
0,
1,
0,
0,
0,
0,
0,
0,
0,
0,
0,
0,
0,
0,
0,
0,
0,
0,
0,
0,
0,
0,
0,
0,
0,
0,
0,
0,
0,
0,
0,
0,
0,
0,
0,
0,
0,
0,
0,
0,
0,
0,
0,
0,
0,
0,
0,
0,
0,
0,
0,
0,
0,
0,
0,
0,
0,
0,
0,
0,
0,
0,
0,
0,
0,
0,
0,
0,
0,
0,
0,
0,
0,
0,
0,
0,
0,
0,
0,
0,
0,
0,
0,
0,
0,
0,
0,
0,
0,
0,
0,
0,
0,
0,
0,
0,
0,
0,
0,
0,
0,
0,
0,
0,
0,
0,
0,
0,
0,
0,
0,
0,
#ENDOFDATA   :

File: PrF3 std.msa
#FORMAT      : EMSA/MAS Spectral Data File
#VERSION     : 1.0
#TITLE       : PrF3 standard for 'N132962' detector
#NPOINTS     : 4096
#NCOLUMNS    : 1
#XUNITS      : eV
#YUNITS      : counts
#DATATYPE    : Y
#SIGNALTYPE  : EDS
#XLABEL      : Energy (eV)
#YLABEL      : Counts
#XPERCHAN -eV: 9.99778
#OFFSET   -eV: 1.69135
#CHOFFSET    : 0
#DATE        : 26-Sep-2025
#TIME        : 15:47:00
#OWNER       : Unknown
#ELEVANGLE   : 35
#BEAMKV   -kV: 15
#LIVETIME  -s: 1196.72
#REALTIME  -s: 1289.93
#PROBECUR -nA: 1.22066
##WORKING -mm: 15
##D2STDCMP   : PrF3,(F:28.7996),(Pr:71.2004)
##SIMILAR    : 3.3
#SPECTRUM    :
123,
4059,
108854,
54182,
89501,
918414,
45359,
69438,
45030,
33418,
27751,
28327,
31896,
31911,
27388,
27967,
28722,
27717,
27581,
27113,
26169,
27375,
25363,
25623,
24468,
22879,
22274,
22149,
20747,
20142,
19433,
19688,
28466,
18230,
17928,
33976,
288651,
22634,
17376,
121833,
51608,
23388,
53150,
12780,
12716,
27837,
14135,
16344,
11150,
10258,
9207,
8864,
8782,
8576,
8121,
8075,
7708,
7364,
7281,
7036,
6827,
6567,
6447,
6055,
5999,
5584,
5574,
5255,
5300,
4881,
4876,
4547,
4669,
4231,
4095,
4044,
3828,
3542,
3262,
3259,
3156,
2871,
2784,
2639,
2486,
2279,
2169,
2052,
1902,
1763,
1657,
1526,
1334,
1316,
1227,
1077,
1023,
865,
809,
687,
586,
495,
433,
339,
243,
183,
106,
27,
16,
10,
16,
15,
10,
8,
12,
4,
5,
7,
7,
6,
5,
17,
11,
4,
7,
9,
3,
7,
8,
9,
7,
2,
6,
3,
2,
2,
6,
5,
5,
3,
2,
5,
0,
2,
2,
2,
0,
1,
0,
1,
0,
0,
0,
1,
1,
1,
1,
0,
0,
1,
0,
0,
0,
1,
0,
0,
0,
0,
0,
0,
0,
0,
0,
0,
0,
0,
0,
0,
0,
0,
0,
0,
0,
0,
0,
0,
0,
0,
0,
1,
0,
0,
0,
0,
0,
0,
0,
0,
0,
0,
0,
0,
0,
0,
0,
0,
0,
0,
0,
0,
0,
0,
0,
0,
0,
0,
0,
0,
0,
0,
0,
0,
0,
0,
0,
0,
0,
0,
0,
0,
0,
0,
0,
0,
0,
0,
0,
0,
0,
0,
0,
0,
0,
0,
0,
0,
0,
0,
0,
0,
0,
0,
0,
0,
0,
0,
0,
0,
0,
0,
0,
0,
0,
0,
0,
0,
0,
0,
0,
0,
0,
0,
0,
0,
0,
0,
0,
0,
0,
0,
0,
0,
0,
0,
0,
0,
0,
0,
0,
0,
0,
0,
0,
0,
#ENDOFDATA   :

File: PrP5O14 std.msa
#FORMAT      : EMSA/MAS Spectral Data File
#VERSION     : 1.0
#TITLE       : PrP5O14 standard for 'N132962' detector
#NPOINTS     : 4096
#NCOLUMNS    : 1
#XUNITS      : eV
#YUNITS      : counts
#DATATYPE    : Y
#SIGNALTYPE  : EDS
#XLABEL      : Energy (eV)
#YLABEL      : Counts
#XPERCHAN -eV: 9.99778
#OFFSET   -eV: 1.69135
#CHOFFSET    : 0
#DATE        : 17-Mar-2025
#TIME        : 16:57:00
#OWNER       : Unknown
#ELEVANGLE   : 35
#BEAMKV   -kV: 15
#LIVETIME  -s: 1198.62
#REALTIME  -s: 1264.92
#PROBECUR -nA: 1.02671
##WORKING -mm: 15
##D2STDCMP   : PrP5O14,(O:43.0939),(P:29.7961),(Pr:27.1100)
##SIMILAR    : 5.4
#SPECTRUM    :
113,
1717,
76681,
45246,
342192,
42846,
23729,
39343,
28622,
24107,
21641,
22212,
23500,
25093,
321313,
96011,
15789,
13912,
15608,
13495,
13011,
12772,
12237,
11959,
11491,
10929,
10836,
10170,
10001,
9930,
9202,
9017,
11325,
8218,
8095,
12544,
84450,
9119,
7368,
36348,
17015,
8479,
17426,
5933,
5540,
9837,
5885,
6624,
4953,
4667,
4358,
4071,
3852,
3887,
3633,
3633,
3328,
3319,
3189,
3038,
2895,
2862,
2644,
2631,
2559,
2362,
2310,
2204,
2099,
2048,
1943,
1876,
1777,
1750,
1662,
1583,
1512,
1459,
1269,
1250,
1159,
1132,
1051,
989,
931,
832,
809,
819,
711,
629,
571,
541,
512,
432,
395,
348,
316,
305,
260,
212,
184,
146,
129,
108,
84,
48,
31,
9,
2,
3,
0,
2,
2,
2,
2,
2,
1,
3,
1,
3,
1,
0,
1,
1,
2,
2,
2,
1,
1,
1,
0,
0,
0,
0,
0,
0,
1,
0,
0,
0,
0,
1,
0,
0,
0,
0,
0,
1,
0,
1,
0,
0,
0,
0,
0,
0,
0,
0,
0,
0,
0,
1,
0,
0,
0,
0,
0,
0,
0,
0,
0,
0,
0,
0,
0,
0,
0,
0,
0,
0,
0,
0,
0,
0,
0,
0,
0,
0,
0,
0,
0,
0,
0,
0,
0,
0,
0,
0,
0,
0,
0,
0,
0,
0,
0,
0,
0,
0,
0,
0,
0,
0,
0,
0,
0,
0,
0,
0,
0,
0,
0,
0,
0,
0,
0,
0,
0,
0,
0,
0,
0,
0,
0,
0,
0,
0,
0,
0,
0,
0,
0,
0,
0,
0,
0,
0,
0,
0,
0,
0,
0,
0,
0,
0,
0,
0,
0,
0,
0,
0,
0,
0,
0,
0,
0,
0,
0,
0,
0,
0,
0,
0,
0,
0,
0,
0,
0,
0,
0,
0,
0,
0,
0,
0,
0,
0,
0,
0,
0,
0,
0,
0,
0,
0,
#ENDOFDATA   :