Folder: spex_quant/N132962/Standards/15 keV (part 8)

File: YbP5O14 std.msa
#FORMAT      : EMSA/MAS Spectral Data File
#VERSION     : 1.0
#TITLE       : YbP5O14 standard for 'N132962' detector
#NPOINTS     : 4096
#NCOLUMNS    : 1
#XUNITS      : eV
#YUNITS      : counts
#DATATYPE    : Y
#SIGNALTYPE  : EDS
#XLABEL      : Energy (eV)
#YLABEL      : Counts
#XPERCHAN -eV: 9.99778
#OFFSET   -eV: 1.69135
#CHOFFSET    : 0
#DATE        : 17-Mar-2025
#TIME        : 15:53:00
#OWNER       : Unknown
#ELEVANGLE   : 35
#BEAMKV   -kV: 15
#LIVETIME  -s: 1198.85
#REALTIME  -s: 1267.74
#PROBECUR -nA: 1.0242
##WORKING -mm: 15
##D2STDCMP   : YbP5O14,(O:40.5845),(P:28.0610),(Yb:31.3544)
##SIMILAR    : 1.1
#SPECTRUM    :
127,
1868,
83566,
38101,
268110,
19873,
23664,
26510,
36724,
33656,
34057,
370656,
26438,
28661,
290775,
88918,
15789,
14589,
15519,
14039,
13650,
13666,
13507,
12871,
12615,
12654,
12332,
11258,
11233,
11077,
10462,
10028,
9744,
9483,
8992,
8717,
8306,
8124,
7972,
7582,
7366,
7213,
7027,
6709,
6368,
6325,
6688,
6985,
5460,
5415,
5232,
5117,
9127,
34527,
6617,
4344,
4159,
4045,
3925,
5590,
13941,
5985,
6433,
6335,
3092,
2771,
2713,
2630,
2599,
2875,
3825,
2359,
2567,
2212,
2017,
2003,
1777,
1675,
1628,
1454,
1402,
1436,
1276,
1216,
1168,
1082,
984,
959,
886,
867,
749,
713,
604,
577,
515,
493,
387,
402,
330,
302,
236,
217,
165,
137,
107,
55,
34,
7,
5,
3,
1,
3,
1,
4,
3,
6,
2,
0,
2,
3,
1,
4,
2,
0,
1,
2,
0,
3,
0,
1,
3,
2,
2,
1,
0,
0,
1,
2,
0,
0,
1,
2,
0,
2,
0,
1,
0,
2,
0,
0,
1,
0,
0,
0,
0,
0,
0,
0,
0,
0,
0,
2,
0,
0,
0,
1,
0,
0,
0,
0,
0,
0,
0,
0,
0,
0,
0,
0,
0,
0,
0,
0,
0,
0,
0,
0,
0,
0,
0,
0,
0,
0,
0,
0,
0,
0,
0,
0,
0,
0,
0,
0,
0,
0,
0,
0,
0,
0,
0,
0,
0,
0,
0,
0,
0,
0,
0,
0,
0,
0,
0,
0,
0,
0,
0,
0,
0,
0,
0,
0,
0,
0,
0,
0,
0,
0,
0,
0,
0,
0,
0,
0,
0,
0,
0,
0,
0,
0,
0,
0,
0,
0,
0,
0,
0,
0,
0,
0,
0,
0,
0,
0,
0,
0,
0,
0,
0,
0,
0,
0,
0,
0,
0,
0,
0,
0,
0,
0,
0,
0,
0,
0,
0,
0,
0,
0,
0,
0,
0,
0,
0,
0,
0,
0,
#ENDOFDATA   :

File: YP5O14 std.msa
#FORMAT      : EMSA/MAS Spectral Data File
#VERSION     : 1.0
#TITLE       : YP5O14 standard for 'N132962' detector
#NPOINTS     : 4096
#NCOLUMNS    : 1
#XUNITS      : eV
#YUNITS      : counts
#DATATYPE    : Y
#SIGNALTYPE  : EDS
#XLABEL      : Energy (eV)
#YLABEL      : Counts
#XPERCHAN -eV: 9.99778
#OFFSET   -eV: 1.69135
#CHOFFSET    : 0
#DATE        : 17-Mar-2025
#TIME        : 17:25:00
#OWNER       : Unknown
#ELEVANGLE   : 35
#BEAMKV   -kV: 15
#LIVETIME  -s: 1917.96
#REALTIME  -s: 2023.74
#PROBECUR -nA: 1.02589
##WORKING -mm: 15
##D2STDCMP   : YP5O14,(O:47.8847),(P:33.1086),(Y:19.0067)
##SIMILAR    : 1.2
#SPECTRUM    :
180,
4261,
123650,
51163,
418482,
24522,
29023,
33123,
36009,
38141,
39272,
39341,
60318,
72039,
988805,
205826,
20842,
19086,
20225,
16566,
15829,
15999,
15375,
14741,
14507,
13796,
13721,
12958,
13757,
13586,
11396,
11013,
10625,
10387,
9734,
9395,
9340,
8862,
8578,
8092,
7648,
7379,
7371,
7016,
6671,
6482,
6463,
5853,
5736,
5478,
5272,
5078,
4897,
4687,
4544,
4424,
4047,
3937,
3750,
3620,
3565,
3354,
3327,
3196,
2958,
2773,
2735,
2599,
2495,
2402,
2307,
2098,
2084,
1994,
1844,
1855,
1618,
1603,
1610,
1419,
1339,
1210,
1245,
1074,
1017,
1015,
890,
799,
775,
679,
694,
608,
552,
557,
461,
433,
364,
329,
282,
257,
217,
182,
147,
120,
81,
69,
26,
10,
2,
2,
1,
2,
1,
2,
0,
2,
3,
2,
1,
1,
1,
0,
0,
0,
0,
1,
0,
2,
0,
0,
1,
0,
1,
0,
0,
0,
0,
0,
0,
0,
2,
0,
0,
0,
0,
1,
0,
0,
0,
0,
0,
0,
1,
0,
0,
0,
0,
0,
0,
0,
0,
0,
0,
0,
0,
0,
0,
0,
0,
0,
0,
0,
0,
0,
0,
0,
1,
0,
0,
0,
0,
0,
0,
0,
0,
0,
0,
0,
0,
0,
0,
0,
0,
0,
0,
0,
0,
0,
0,
0,
0,
0,
0,
0,
0,
0,
0,
0,
0,
0,
1,
0,
0,
0,
0,
0,
0,
0,
0,
0,
0,
0,
0,
0,
0,
0,
0,
0,
0,
0,
0,
0,
0,
0,
0,
0,
0,
0,
0,
0,
0,
0,
0,
0,
0,
0,
0,
0,
0,
0,
0,
0,
0,
0,
0,
0,
0,
0,
0,
0,
0,
0,
0,
0,
0,
0,
0,
0,
0,
0,
0,
0,
0,
0,
0,
0,
0,
0,
0,
0,
0,
0,
0,
0,
0,
0,
0,
0,
0,
0,
0,
0,
0,
0,
#ENDOFDATA   :

File: Zn std.msa
#FORMAT      : EMSA/MAS Spectral Data File
#VERSION     : 1.0
#TITLE       : Zn standard for 'N132962' detector
#NPOINTS     : 4096
#NCOLUMNS    : 1
#XUNITS      : eV
#YUNITS      : counts
#DATATYPE    : Y
#SIGNALTYPE  : EDS
#XLABEL      : Energy (eV)
#YLABEL      : Counts
#XPERCHAN -eV: 9.99778
#OFFSET   -eV: 1.69135
#CHOFFSET    : 0
#DATE        : 26-Sep-2025
#TIME        : 23:20:00
#OWNER       : Unknown
#ELEVANGLE   : 35
#BEAMKV   -kV: 15
#LIVETIME  -s: 1680.43
#REALTIME  -s: 1859.54
#PROBECUR -nA: 1.21547
##WORKING -mm: 15
##D2STDCMP   : Zn,(Zn:100.0000)
##SIMILAR    : 1.3
#SPECTRUM    :
188,
2982,
89573,
48789,
82803,
94889,
267282,
3084729,
78227,
28410,
31395,
36085,
39390,
42035,
44276,
41260,
36891,
36904,
36273,
36467,
35188,
33819,
32855,
31866,
31061,
29982,
28983,
27989,
26923,
26219,
25488,
24419,
23325,
22733,
22065,
21116,
20310,
19700,
19033,
18576,
17347,
17280,
16696,
15913,
15533,
15203,
15948,
13814,
13438,
13271,
12550,
12108,
11492,
11300,
10816,
10265,
10074,
9499,
9395,
9237,
10536,
120285,
195316,
11836,
7588,
7378,
7216,
8214,
34894,
21292,
5672,
5064,
4955,
4697,
4531,
4518,
4454,
3929,
3813,
3637,
3378,
3245,
3076,
2994,
2780,
2657,
2422,
2323,
2142,
1947,
1856,
1658,
1619,
1448,
1306,
1160,
1105,
974,
867,
774,
651,
576,
438,
368,
303,
192,
117,
44,
19,
19,
10,
21,
22,
10,
23,
15,
11,
14,
10,
10,
7,
12,
26,
66,
43,
16,
11,
9,
6,
17,
28,
13,
6,
7,
10,
6,
3,
3,
6,
7,
4,
7,
3,
1,
4,
3,
2,
1,
3,
2,
3,
4,
1,
1,
2,
2,
0,
0,
0,
1,
0,
2,
0,
0,
3,
0,
0,
1,
0,
1,
0,
1,
1,
0,
0,
0,
0,
0,
0,
1,
0,
0,
0,
0,
0,
0,
0,
0,
0,
0,
0,
0,
0,
0,
0,
0,
0,
0,
0,
0,
0,
0,
0,
0,
0,
0,
0,
0,
0,
0,
0,
0,
0,
0,
0,
0,
0,
0,
0,
0,
0,
0,
0,
0,
0,
0,
0,
0,
0,
0,
0,
0,
0,
0,
0,
0,
0,
0,
0,
0,
0,
0,
0,
0,
0,
0,
0,
0,
0,
0,
0,
0,
0,
0,
0,
0,
0,
0,
0,
0,
0,
0,
0,
0,
0,
0,
0,
0,
0,
0,
0,
0,
0,
0,
0,
0,
0,
0,
0,
0,
0,
0,
0,
0,
0,
0,
0,
0,
0,
0,
0,
0,
0,
0,
#ENDOFDATA   :

File: ZnS std.msa
#FORMAT      : EMSA/MAS Spectral Data File
#VERSION     : 1.0
#TITLE       : ZnS standard for 'N132962' detector
#NPOINTS     : 4096
#NCOLUMNS    : 1
#XUNITS      : eV
#YUNITS      : counts
#DATATYPE    : Y
#SIGNALTYPE  : EDS
#XLABEL      : Energy (eV)
#YLABEL      : Counts
#XPERCHAN -eV: 9.99778
#OFFSET   -eV: 1.69135
#CHOFFSET    : 0
#DATE        : 27-Sep-2025
#TIME        : 18:15:00
#OWNER       : Unknown
#ELEVANGLE   : 35
#BEAMKV   -kV: 15
#LIVETIME  -s: 2159.14
#REALTIME  -s: 2357.74
#PROBECUR -nA: 1.20962
##WORKING -mm: 15
##D2STDCMP   : ZnS,(S:32.9023),(Zn:67.0977)
##SIMILAR    : 1.1
#SPECTRUM    :
256,
4824,
75373,
42244,
100000,
91940,
220650,
2347349,
90814,
41100,
45142,
48588,
51809,
54022,
51649,
53699,
475034,
367564,
86789,
34925,
34302,
33548,
33050,
33899,
37069,
30725,
29530,
28714,
27651,
26730,
25534,
25048,
24219,
24689,
22905,
21661,
21139,
20218,
19782,
19103,
18109,
17420,
17057,
16302,
15738,
15235,
14897,
14230,
13619,
13291,
12903,
12094,
11699,
11559,
11047,
10556,
10263,
9956,
9643,
9340,
10079,
97995,
157545,
11005,
7618,
7318,
7208,
8011,
29319,
17554,
5547,
5325,
5003,
4931,
4636,
4413,
4318,
4204,
4178,
3749,
3489,
3276,
3156,
2861,
2764,
2701,
2499,
2256,
2051,
2006,
1877,
1727,
1554,
1428,
1280,
1132,
1045,
921,
871,
714,
595,
533,
452,
337,
299,
200,
117,
47,
22,
24,
19,
16,
16,
13,
13,
8,
7,
3,
11,
11,
12,
12,
14,
49,
20,
4,
7,
11,
5,
3,
12,
10,
14,
2,
7,
5,
8,
3,
5,
4,
2,
2,
5,
3,
2,
2,
0,
5,
2,
1,
1,
2,
2,
4,
2,
3,
0,
0,
1,
0,
0,
0,
1,
1,
0,
0,
1,
0,
0,
0,
1,
0,
0,
0,
0,
0,
0,
0,
0,
0,
0,
0,
0,
0,
0,
0,
0,
0,
0,
0,
0,
0,
0,
0,
0,
0,
0,
0,
0,
0,
0,
0,
0,
0,
0,
0,
0,
0,
0,
0,
0,
0,
0,
0,
0,
0,
0,
0,
0,
0,
0,
0,
0,
0,
0,
0,
0,
0,
0,
0,
0,
0,
0,
0,
0,
0,
0,
0,
0,
0,
0,
0,
0,
0,
0,
0,
0,
0,
0,
0,
0,
0,
0,
0,
0,
0,
0,
0,
0,
0,
0,
0,
0,
0,
0,
0,
0,
0,
0,
0,
0,
0,
0,
0,
0,
0,
0,
0,
0,
0,
0,
0,
0,
0,
0,
0,
0,
0,
0,
0,
0,
0,
0,
0,
#ENDOFDATA   :

File: Zr std.msa
#FORMAT      : EMSA/MAS Spectral Data File
#VERSION     : 1.0
#TITLE       : Zr standard for 'N132962' detector
#NPOINTS     : 4096
#NCOLUMNS    : 1
#XUNITS      : eV
#YUNITS      : counts
#DATATYPE    : Y
#SIGNALTYPE  : EDS
#XLABEL      : Energy (eV)
#YLABEL      : Counts
#XPERCHAN -eV: 9.99778
#OFFSET   -eV: 1.69135
#CHOFFSET    : 0
#DATE        : 26-Sep-2025
#TIME        : 13:39:00
#OWNER       : Unknown
#ELEVANGLE   : 35
#BEAMKV   -kV: 15
#LIVETIME  -s: 2157.53
#REALTIME  -s: 2370.737
#PROBECUR -nA: 1.21821
##WORKING -mm: 15
##D2STDCMP   : Zr,(Zr:100.0000)
##SIMILAR    : 1.1
#SPECTRUM    :
220,
82130,
127515,
51524,
73351,
73199,
81118,
88011,
94385,
100146,
103765,
107183,
108797,
240278,
579469,
2082217,
219751,
45203,
54521,
38255,
40001,
39850,
40161,
39880,
39938,
39244,
38835,
38495,
38477,
42839,
41712,
36151,
34036,
33029,
32304,
31430,
30627,
29848,
29258,
28644,
27590,
26515,
25767,
25033,
24236,
24269,
25628,
21904,
21221,
20523,
20650,
19777,
18631,
18484,
17478,
16927,
16394,
15877,
15313,
14731,
14107,
14099,
13278,
12818,
12353,
11728,
11337,
10927,
10670,
10271,
9791,
9436,
8810,
8767,
8275,
8016,
7671,
7394,
6937,
6465,
6116,
5802,
5630,
5265,
5010,
4606,
4459,
4146,
3947,
3627,
3334,
3033,
2744,
2592,
2416,
2173,
1907,
1784,
1589,
1348,
1227,
1026,
902,
712,
574,
392,
246,
72,
34,
25,
27,
30,
26,
19,
23,
15,
16,
15,
12,
11,
8,
10,
19,
9,
7,
7,
12,
8,
8,
9,
5,
5,
5,
6,
7,
2,
3,
5,
3,
6,
6,
4,
4,
5,
3,
2,
2,
4,
2,
2,
2,
0,
5,
0,
2,
0,
1,
1,
2,
1,
0,
0,
2,
1,
1,
0,
1,
1,
0,
1,
0,
1,
1,
0,
1,
0,
0,
0,
0,
1,
0,
0,
0,
1,
0,
0,
0,
0,
0,
0,
0,
0,
0,
0,
0,
0,
0,
0,
0,
0,
0,
0,
0,
0,
0,
0,
0,
0,
0,
0,
0,
0,
0,
0,
0,
0,
0,
0,
0,
0,
0,
0,
0,
0,
0,
0,
0,
0,
0,
0,
0,
0,
0,
0,
0,
0,
0,
0,
0,
0,
0,
0,
0,
0,
0,
0,
0,
0,
0,
0,
0,
0,
0,
0,
0,
0,
0,
0,
0,
0,
0,
0,
0,
0,
0,
0,
0,
0,
0,
0,
0,
0,
0,
0,
0,
0,
0,
0,
0,
0,
0,
0,
0,
0,
0,
0,
0,
0,
0,
0,
0,
0,
0,
0,
#ENDOFDATA   :