Folder: spex_quant/N132962/Standards/15 keV (part 7)

File: SrF2 std.msa
#FORMAT      : EMSA/MAS Spectral Data File
#VERSION     : 1.0
#TITLE       : SrF2 standard for 'N132962' detector
#NPOINTS     : 4096
#NCOLUMNS    : 1
#XUNITS      : eV
#YUNITS      : counts
#DATATYPE    : Y
#SIGNALTYPE  : EDS
#XLABEL      : Energy (eV)
#YLABEL      : Counts
#XPERCHAN -eV: 9.99778
#OFFSET   -eV: 1.69135
#CHOFFSET    : 0
#DATE        : 26-Sep-2025
#TIME        : 13:17:00
#OWNER       : Unknown
#ELEVANGLE   : 35
#BEAMKV   -kV: 15
#LIVETIME  -s: 1204.07
#REALTIME  -s: 1302.31
#PROBECUR -nA: 1.21801
##WORKING -mm: 15
##D2STDCMP   : SrF2,(F:30.2482),(Sr:69.7518)
##SIMILAR    : 1.1
#SPECTRUM    :
1940,
8504,
39224,
21703,
45754,
491057,
30657,
35164,
38887,
41190,
42960,
73686,
77886,
1435489,
114572,
20611,
21931,
19225,
21284,
18910,
18980,
18518,
18538,
18349,
17882,
17673,
20144,
17069,
15930,
15500,
14878,
14563,
14350,
13542,
13211,
12999,
12503,
11945,
11480,
11424,
10757,
10541,
10024,
9782,
9494,
9199,
9688,
8352,
8239,
8005,
7694,
7365,
7099,
7046,
6531,
6169,
6200,
5753,
5673,
5335,
5303,
5076,
4865,
4680,
4411,
4391,
3970,
3885,
3830,
3650,
3530,
3422,
3093,
3003,
2966,
2832,
2549,
2604,
2313,
2229,
2147,
2118,
1908,
1812,
1778,
1555,
1491,
1428,
1201,
1145,
1133,
1004,
931,
806,
730,
709,
628,
519,
501,
397,
357,
295,
220,
192,
134,
79,
34,
8,
6,
3,
4,
4,
7,
4,
2,
3,
2,
0,
1,
1,
2,
3,
2,
5,
2,
2,
3,
1,
3,
2,
1,
1,
3,
2,
3,
2,
1,
1,
1,
0,
2,
1,
0,
2,
0,
0,
1,
0,
0,
0,
1,
0,
0,
0,
1,
0,
0,
0,
0,
0,
1,
0,
0,
0,
0,
0,
0,
0,
0,
0,
0,
0,
0,
0,
0,
0,
0,
0,
0,
0,
0,
0,
0,
0,
0,
0,
0,
1,
0,
0,
0,
0,
0,
0,
0,
0,
0,
0,
0,
0,
0,
0,
0,
0,
0,
0,
0,
0,
0,
0,
0,
0,
0,
0,
0,
0,
0,
0,
0,
0,
0,
0,
0,
0,
0,
0,
0,
0,
0,
0,
0,
0,
0,
0,
0,
0,
0,
0,
0,
0,
0,
0,
0,
0,
0,
0,
0,
0,
0,
0,
0,
0,
0,
0,
0,
0,
0,
0,
0,
0,
0,
0,
0,
0,
0,
0,
0,
0,
0,
0,
0,
0,
0,
0,
0,
0,
0,
0,
0,
0,
0,
0,
0,
0,
0,
0,
0,
0,
0,
0,
0,
0,
0,
0,
#ENDOFDATA   :

File: SrTiO3 std.msa
#FORMAT      : EMSA/MAS Spectral Data File
#VERSION     : 1.0
#TITLE       : SrTiO3 standard for 'N132962' detector
#NPOINTS     : 4096
#NCOLUMNS    : 1
#XUNITS      : eV
#YUNITS      : counts
#DATATYPE    : Y
#SIGNALTYPE  : EDS
#XLABEL      : Energy (eV)
#YLABEL      : Counts
#XPERCHAN -eV: 9.99778
#OFFSET   -eV: 1.69135
#CHOFFSET    : 0
#DATE        : 29-Sep-2025
#TIME        : 00:22:00
#OWNER       : Unknown
#ELEVANGLE   : 35
#BEAMKV   -kV: 15
#LIVETIME  -s: 1921.97
#REALTIME  -s: 2053.01
#PROBECUR -nA: 1.21151
##WORKING -mm: 15
##D2STDCMP   : SrTiO3,(O:26.1587),(Ti:26.0878),(Sr:47.7535)
##SIMILAR    : 1.0
#SPECTRUM    :
189,
5201,
127673,
107895,
187532,
34364,
43634,
48773,
53993,
58419,
61492,
93539,
92702,
1612413,
128745,
34052,
35370,
31854,
30790,
31027,
32904,
29303,
28773,
28288,
27575,
26676,
27943,
25102,
24035,
22977,
22618,
26649,
436058,
63930,
21491,
72129,
25764,
16446,
15956,
15634,
15115,
14657,
14122,
13640,
13228,
13820,
13271,
11981,
11612,
11137,
10793,
10320,
9838,
9779,
9322,
8829,
8677,
8123,
8147,
7747,
7377,
7111,
6951,
6600,
6350,
6104,
5976,
5608,
5488,
5305,
5023,
4714,
4558,
4382,
4121,
3990,
3852,
3591,
3398,
3200,
3095,
2867,
2677,
2491,
2452,
2165,
2098,
1987,
1844,
1690,
1533,
1399,
1365,
1180,
1088,
960,
842,
750,
676,
611,
542,
440,
373,
295,
234,
154,
75,
26,
15,
9,
11,
9,
11,
10,
11,
3,
6,
4,
6,
3,
6,
8,
4,
1,
3,
6,
2,
4,
5,
6,
2,
4,
2,
1,
4,
1,
1,
2,
0,
0,
1,
2,
0,
1,
0,
1,
0,
4,
2,
1,
1,
0,
0,
2,
1,
1,
0,
0,
0,
0,
0,
1,
0,
0,
0,
0,
0,
1,
0,
0,
0,
0,
0,
0,
0,
0,
0,
0,
0,
0,
0,
0,
0,
0,
0,
0,
0,
0,
0,
0,
0,
0,
0,
0,
1,
0,
0,
0,
0,
0,
0,
0,
0,
0,
0,
0,
0,
0,
0,
0,
0,
0,
0,
0,
0,
0,
0,
0,
0,
0,
0,
0,
0,
0,
0,
0,
0,
0,
0,
0,
0,
0,
0,
0,
0,
0,
0,
0,
0,
0,
0,
0,
0,
0,
0,
0,
0,
0,
0,
0,
0,
0,
0,
0,
0,
0,
0,
0,
0,
0,
0,
0,
0,
0,
0,
0,
0,
0,
0,
0,
0,
0,
0,
0,
0,
0,
0,
0,
0,
0,
0,
0,
0,
0,
0,
0,
0,
0,
0,
0,
0,
0,
0,
0,
#ENDOFDATA   :

File: Ta std.msa
#FORMAT      : EMSA/MAS Spectral Data File
#VERSION     : 1.0
#TITLE       : Ta standard for 'N132962' detector
#NPOINTS     : 4096
#NCOLUMNS    : 1
#XUNITS      : eV
#YUNITS      : counts
#DATATYPE    : Y
#SIGNALTYPE  : EDS
#XLABEL      : Energy (eV)
#YLABEL      : Counts
#XPERCHAN -eV: 9.99778
#OFFSET   -eV: 1.69135
#CHOFFSET    : 0
#DATE        : 26-Sep-2025
#TIME        : 17:54:00
#OWNER       : Unknown
#ELEVANGLE   : 35
#BEAMKV   -kV: 15
#LIVETIME  -s: 2161.16
#REALTIME  -s: 2413.38
#PROBECUR -nA: 1.21605
##WORKING -mm: 15
##D2STDCMP   : Ta,(Ta:100.0000)
##SIMILAR    : 1.2
#SPECTRUM    :
209,
8031,
101761,
67870,
99831,
104784,
116602,
124542,
128750,
175722,
180337,
147093,
2565354,
450684,
121593,
61863,
75615,
57921,
56392,
58242,
56557,
57720,
58587,
57982,
60664,
62523,
56312,
55835,
54630,
53449,
52860,
52456,
51123,
50000,
49113,
48013,
47076,
45827,
44836,
44582,
42708,
41309,
40898,
39392,
38380,
38502,
39684,
35608,
34584,
33518,
33013,
40022,
32748,
30525,
28895,
28166,
27512,
41270,
220157,
61842,
25964,
23610,
22496,
21648,
21246,
22495,
46816,
69233,
33399,
52120,
21512,
16757,
14827,
14476,
13797,
13610,
12982,
15872,
20394,
12665,
13316,
11595,
9947,
9661,
8854,
8254,
7891,
7322,
7033,
6593,
6249,
5922,
5455,
5131,
4697,
4344,
4106,
3614,
3222,
2822,
2630,
2283,
1976,
1583,
1288,
930,
599,
221,
75,
73,
83,
66,
63,
62,
46,
64,
65,
46,
55,
34,
26,
48,
43,
43,
46,
62,
45,
47,
44,
45,
30,
36,
35,
24,
44,
33,
30,
25,
30,
18,
22,
30,
19,
16,
17,
21,
12,
13,
10,
11,
8,
7,
9,
12,
9,
11,
6,
8,
6,
7,
6,
4,
3,
7,
6,
1,
2,
3,
2,
3,
2,
2,
2,
0,
1,
1,
2,
3,
0,
1,
0,
0,
1,
1,
1,
0,
0,
1,
0,
0,
1,
0,
0,
0,
0,
0,
1,
0,
0,
0,
0,
0,
0,
0,
0,
0,
0,
0,
0,
0,
0,
0,
0,
0,
0,
0,
0,
0,
0,
0,
0,
0,
0,
0,
0,
0,
0,
0,
0,
0,
0,
0,
0,
0,
0,
0,
0,
0,
0,
0,
0,
0,
0,
0,
0,
0,
0,
0,
0,
0,
0,
0,
0,
0,
0,
0,
0,
0,
0,
0,
0,
0,
0,
0,
0,
0,
0,
0,
0,
0,
0,
0,
0,
0,
0,
0,
0,
0,
0,
0,
0,
0,
0,
0,
0,
0,
0,
0,
0,
0,
0,
0,
0,
0,
#ENDOFDATA   :

File: Tb std.msa
#FORMAT      : EMSA/MAS Spectral Data File
#VERSION     : 1.0
#TITLE       : Tb standard for 'N132962' detector
#NPOINTS     : 4096
#NCOLUMNS    : 1
#XUNITS      : eV
#YUNITS      : counts
#DATATYPE    : Y
#SIGNALTYPE  : EDS
#XLABEL      : Energy (eV)
#YLABEL      : Counts
#XPERCHAN -eV: 9.99778
#OFFSET   -eV: 1.69135
#CHOFFSET    : 0
#DATE        : 26-Sep-2025
#TIME        : 17:22:00
#OWNER       : Unknown
#ELEVANGLE   : 35
#BEAMKV   -kV: 15
#LIVETIME  -s: 1440.3
#REALTIME  -s: 1565.25
#PROBECUR -nA: 1.21621
##WORKING -mm: 15
##D2STDCMP   : Tb,(Tb:100.0000)
##SIMILAR    : 2.2
#SPECTRUM    :
133,
4331,
76597,
65670,
110590,
133235,
94505,
283027,
96608,
541342,
55182,
51157,
48125,
42015,
38482,
38556,
39807,
40822,
40893,
41155,
40905,
40781,
39876,
39410,
39243,
38294,
37031,
36520,
35766,
34997,
34499,
33554,
33536,
32047,
30593,
30211,
29314,
28623,
28147,
31025,
35478,
26003,
25106,
24990,
83141,
308173,
29412,
21470,
21163,
46008,
144657,
40605,
42871,
51747,
16986,
15269,
15576,
19709,
31383,
15266,
19464,
13358,
12976,
11788,
11166,
10965,
10522,
10306,
10178,
9770,
9548,
8913,
8733,
8480,
8181,
7716,
7421,
7083,
6852,
6515,
6131,
6035,
5705,
5304,
5169,
4882,
4690,
4242,
4056,
3851,
3743,
3354,
3089,
2880,
2620,
2420,
2320,
2022,
1844,
1577,
1409,
1171,
1050,
846,
638,
471,
268,
105,
40,
42,
38,
34,
26,
33,
21,
19,
32,
27,
24,
21,
20,
37,
22,
23,
34,
19,
19,
21,
15,
18,
22,
22,
13,
19,
17,
13,
12,
10,
14,
7,
10,
5,
6,
4,
6,
8,
3,
7,
2,
1,
3,
5,
8,
2,
3,
2,
0,
2,
1,
4,
4,
1,
3,
2,
1,
2,
0,
1,
2,
3,
0,
0,
0,
1,
0,
1,
1,
0,
0,
2,
0,
0,
0,
2,
0,
0,
1,
0,
0,
0,
0,
0,
0,
0,
0,
0,
0,
0,
0,
0,
0,
0,
0,
0,
0,
0,
0,
0,
0,
0,
0,
0,
0,
0,
0,
0,
0,
0,
0,
0,
0,
0,
0,
0,
0,
0,
0,
0,
0,
0,
0,
0,
0,
0,
0,
0,
0,
0,
0,
0,
0,
0,
0,
0,
0,
0,
0,
0,
0,
0,
0,
0,
0,
0,
0,
0,
0,
0,
0,
0,
0,
0,
0,
0,
0,
0,
0,
0,
0,
0,
0,
0,
0,
0,
0,
0,
0,
0,
0,
0,
0,
0,
0,
0,
0,
0,
0,
0,
0,
0,
0,
0,
0,
0,
#ENDOFDATA   :

File: TbP5O14 std.msa
#FORMAT      : EMSA/MAS Spectral Data File
#VERSION     : 1.0
#TITLE       : TbP5O14 standard for 'N132962' detector
#NPOINTS     : 4096
#NCOLUMNS    : 1
#XUNITS      : eV
#YUNITS      : counts
#DATATYPE    : Y
#SIGNALTYPE  : EDS
#XLABEL      : Energy (eV)
#YLABEL      : Counts
#XPERCHAN -eV: 9.99778
#OFFSET   -eV: 1.69135
#CHOFFSET    : 0
#DATE        : 17-Mar-2025
#TIME        : 16:16:00
#OWNER       : Unknown
#ELEVANGLE   : 35
#BEAMKV   -kV: 15
#LIVETIME  -s: 959.13
#REALTIME  -s: 1011.49
#PROBECUR -nA: 1.02671
##WORKING -mm: 15
##D2STDCMP   : TbP5O14,(O:41.6501),(P:28.7978),(Tb:29.5521)
##SIMILAR    : 1.0
#SPECTRUM    :
82,
1433,
65379,
33623,
243276,
15917,
19416,
42462,
22989,
120819,
21168,
20540,
20032,
19501,
235865,
72320,
12892,
11345,
12592,
11046,
10926,
10608,
10360,
10193,
9873,
9312,
9298,
8766,
8574,
8599,
7895,
7610,
7458,
6971,
6814,
6670,
6437,
6181,
5973,
6231,
6891,
5386,
5268,
5117,
11977,
40232,
5438,
4395,
4320,
7249,
19329,
6449,
6589,
7821,
3410,
3093,
3180,
3570,
4945,
3039,
3498,
2637,
2585,
2263,
2200,
2130,
2007,
1948,
1991,
1819,
1745,
1676,
1645,
1567,
1431,
1452,
1345,
1230,
1173,
1145,
1095,
1051,
952,
897,
855,
850,
672,
685,
611,
597,
561,
517,
470,
439,
408,
320,
304,
275,
264,
200,
180,
140,
113,
116,
71,
50,
31,
13,
2,
1,
2,
2,
1,
1,
2,
2,
2,
2,
1,
0,
2,
1,
2,
3,
1,
3,
0,
1,
1,
2,
1,
0,
1,
2,
2,
1,
0,
1,
0,
1,
0,
1,
1,
0,
2,
0,
0,
0,
0,
0,
0,
0,
0,
0,
0,
0,
0,
0,
0,
0,
0,
0,
0,
0,
0,
0,
0,
0,
1,
0,
0,
0,
0,
0,
0,
0,
0,
0,
0,
0,
0,
0,
0,
0,
0,
0,
0,
0,
0,
0,
0,
0,
0,
0,
0,
0,
0,
0,
0,
0,
0,
0,
0,
0,
0,
0,
0,
0,
0,
0,
0,
0,
0,
0,
0,
0,
0,
0,
0,
0,
0,
0,
0,
0,
0,
0,
0,
0,
0,
0,
0,
0,
0,
0,
0,
0,
0,
0,
0,
0,
0,
0,
0,
0,
0,
0,
0,
0,
0,
0,
0,
0,
0,
0,
0,
0,
0,
0,
0,
0,
0,
0,
0,
0,
0,
0,
0,
0,
0,
0,
0,
0,
0,
0,
0,
0,
0,
0,
0,
0,
0,
0,
0,
0,
0,
0,
0,
0,
0,
0,
0,
0,
0,
0,
#ENDOFDATA   :

File: Te std.msa
#FORMAT      : EMSA/MAS Spectral Data File
#VERSION     : 1.0
#TITLE       : Te standard for 'N132962' detector
#NPOINTS     : 4096
#NCOLUMNS    : 1
#XUNITS      : eV
#YUNITS      : counts
#DATATYPE    : Y
#SIGNALTYPE  : EDS
#XLABEL      : Energy (eV)
#YLABEL      : Counts
#XPERCHAN -eV: 9.99778
#OFFSET   -eV: 1.69135
#CHOFFSET    : 0
#DATE        : 26-Sep-2025
#TIME        : 16:29:00
#OWNER       : Unknown
#ELEVANGLE   : 35
#BEAMKV   -kV: 15
#LIVETIME  -s: 1911.47
#REALTIME  -s: 2077.24
#PROBECUR -nA: 1.21512
##WORKING -mm: 15
##D2STDCMP   : Te,(Te:100.0000)
##SIMILAR    : 1.3
#SPECTRUM    :
206,
18235,
144746,
396905,
146881,
54668,
62113,
45556,
50476,
56303,
61438,
65936,
69789,
70627,
65619,
65402,
74449,
62683,
60650,
58149,
56409,
54233,
53313,
53946,
89325,
51977,
98824,
1153447,
95327,
541431,
102298,
161531,
45387,
68490,
42894,
38236,
27158,
26317,
26208,
26358,
25370,
24730,
24255,
23809,
23123,
23366,
24988,
21532,
20934,
20674,
20302,
19807,
18886,
18755,
18689,
17540,
17396,
16593,
16225,
15431,
14840,
14581,
14120,
13500,
12999,
12615,
12343,
11847,
11480,
10999,
10823,
10446,
9990,
9410,
8882,
8602,
8331,
7882,
7505,
7298,
6846,
6660,
6188,
5843,
5727,
5440,
4913,
4563,
4294,
4013,
3822,
3528,
3299,
3017,
2759,
2638,
2278,
2081,
1914,
1735,
1448,
1282,
1122,
888,
705,
476,
297,
102,
48,
42,
42,
37,
35,
35,
34,
18,
27,
25,
21,
16,
23,
25,
21,
24,
16,
21,
16,
18,
22,
10,
14,
10,
4,
9,
8,
10,
2,
4,
5,
4,
5,
3,
6,
2,
1,
5,
4,
3,
3,
3,
1,
2,
2,
1,
5,
3,
0,
1,
2,
0,
2,
0,
1,
3,
1,
1,
0,
1,
0,
0,
0,
0,
1,
3,
1,
0,
0,
1,
2,
0,
0,
0,
1,
0,
0,
2,
0,
1,
0,
0,
1,
0,
0,
1,
0,
0,
0,
0,
0,
0,
0,
0,
0,
0,
0,
0,
0,
0,
0,
0,
0,
0,
0,
1,
0,
0,
0,
0,
0,
0,
0,
0,
0,
0,
0,
0,
0,
0,
1,
0,
0,
0,
0,
0,
0,
0,
0,
0,
0,
0,
0,
0,
0,
0,
0,
0,
0,
0,
0,
0,
0,
0,
0,
0,
0,
0,
0,
0,
0,
0,
0,
0,
0,
0,
0,
0,
0,
0,
0,
0,
0,
0,
0,
0,
0,
0,
0,
0,
0,
0,
0,
0,
0,
0,
0,
0,
0,
0,
0,
0,
0,
0,
0,
0,
#ENDOFDATA   :

File: Ti std.msa
#FORMAT      : EMSA/MAS Spectral Data File
#VERSION     : 1.0
#TITLE       : Ti standard for 'N132962' detector
#NPOINTS     : 4096
#NCOLUMNS    : 1
#XUNITS      : eV
#YUNITS      : counts
#DATATYPE    : Y
#SIGNALTYPE  : EDS
#XLABEL      : Energy (eV)
#YLABEL      : Counts
#XPERCHAN -eV: 9.99778
#OFFSET   -eV: 1.69135
#CHOFFSET    : 0
#DATE        : 26-Sep-2025
#TIME        : 22:27:00
#OWNER       : Unknown
#ELEVANGLE   : 35
#BEAMKV   -kV: 15
#LIVETIME  -s: 1919.16
#REALTIME  -s: 2065.11
#PROBECUR -nA: 1.21471
##WORKING -mm: 15
##D2STDCMP   : Ti,(Ti:100.0000)
##SIMILAR    : 1.5
#SPECTRUM    :
190,
3912,
93436,
704877,
43057,
27100,
33372,
38662,
44075,
47209,
51096,
53587,
54670,
53449,
45716,
43669,
42383,
40784,
39200,
38550,
46386,
33644,
32587,
31853,
29599,
28476,
27665,
26710,
25913,
24120,
24104,
43585,
1707383,
203022,
27323,
231541,
45285,
13599,
13862,
13330,
12823,
12776,
12319,
11847,
11522,
11582,
11709,
10561,
10308,
10020,
9549,
9392,
8835,
8702,
8244,
8070,
7792,
7483,
7348,
7104,
6807,
6384,
6310,
6068,
7178,
6593,
5353,
5501,
5238,
4782,
4526,
4349,
4102,
3948,
3574,
3491,
3405,
3092,
3096,
2897,
2878,
2580,
2488,
2263,
2123,
2063,
1921,
1855,
1655,
1554,
1432,
1259,
1178,
1079,
1074,
912,
801,
715,
679,
575,
520,
413,
346,
266,
201,
134,
88,
39,
24,
11,
19,
19,
16,
9,
13,
7,
8,
9,
4,
5,
6,
4,
6,
4,
9,
3,
5,
5,
8,
1,
2,
2,
2,
5,
2,
4,
3,
3,
2,
1,
0,
1,
1,
3,
1,
0,
1,
0,
0,
0,
0,
0,
0,
0,
0,
0,
0,
0,
0,
0,
1,
0,
1,
0,
0,
0,
1,
0,
0,
0,
0,
0,
0,
0,
0,
0,
0,
0,
1,
0,
0,
0,
0,
0,
0,
0,
0,
0,
0,
0,
0,
0,
0,
0,
0,
0,
0,
0,
0,
0,
0,
0,
0,
0,
0,
0,
0,
0,
0,
0,
0,
0,
0,
0,
0,
0,
0,
0,
0,
0,
0,
0,
0,
0,
0,
0,
0,
0,
0,
0,
0,
0,
0,
0,
0,
0,
0,
0,
0,
0,
0,
0,
0,
0,
0,
0,
0,
0,
0,
0,
0,
0,
0,
0,
0,
0,
0,
0,
0,
0,
0,
0,
0,
0,
0,
0,
0,
0,
0,
0,
0,
0,
0,
0,
0,
0,
0,
0,
0,
0,
0,
0,
0,
0,
0,
0,
0,
0,
0,
0,
0,
0,
0,
0,
#ENDOFDATA   :

File: Tm std.msa
#FORMAT      : EMSA/MAS Spectral Data File
#VERSION     : 1.0
#TITLE       : Tm standard for 'N132962' detector
#NPOINTS     : 4096
#NCOLUMNS    : 1
#XUNITS      : eV
#YUNITS      : counts
#DATATYPE    : Y
#SIGNALTYPE  : EDS
#XLABEL      : Energy (eV)
#YLABEL      : Counts
#XPERCHAN -eV: 9.99778
#OFFSET   -eV: 1.69135
#CHOFFSET    : 0
#DATE        : 26-Sep-2025
#TIME        : 18:36:00
#OWNER       : Unknown
#ELEVANGLE   : 35
#BEAMKV   -kV: 15
#LIVETIME  -s: 1681.2
#REALTIME  -s: 1838.69
#PROBECUR -nA: 1.21629
##WORKING -mm: 15
##D2STDCMP   : Tm,(Tm:100.0000)
##SIMILAR    : 2.0
#SPECTRUM    :
158,
6710,
77960,
62403,
88705,
117898,
101340,
103015,
339920,
111604,
333748,
513802,
101248,
58341,
51501,
43395,
45105,
44785,
45434,
46361,
45997,
47479,
45621,
45497,
44513,
44467,
43922,
43241,
42199,
40872,
40494,
39536,
38679,
37855,
37072,
36382,
35617,
34242,
33674,
33833,
31662,
30533,
30019,
29187,
28565,
37771,
32695,
26052,
25496,
24667,
31732,
244944,
82287,
23274,
21310,
20656,
20576,
42390,
108617,
35318,
45901,
38691,
16611,
14611,
14238,
14455,
14349,
25321,
18103,
14417,
15332,
11619,
11524,
10224,
10011,
9500,
9200,
8748,
8659,
8012,
7752,
7364,
7045,
6802,
6298,
6081,
5618,
5416,
5078,
4750,
4520,
4244,
4049,
3597,
3424,
3150,
2947,
2647,
2323,
2120,
1752,
1575,
1398,
1136,
865,
664,
368,
182,
76,
77,
58,
65,
58,
49,
44,
34,
38,
30,
35,
45,
31,
43,
44,
35,
33,
41,
44,
20,
28,
25,
16,
13,
19,
24,
15,
28,
15,
21,
16,
14,
12,
16,
14,
9,
13,
6,
8,
9,
11,
8,
8,
10,
7,
3,
2,
3,
5,
3,
2,
1,
1,
2,
5,
2,
1,
3,
4,
1,
1,
2,
0,
0,
3,
1,
1,
0,
0,
3,
1,
0,
3,
0,
1,
0,
1,
2,
0,
0,
1,
0,
0,
1,
0,
0,
0,
0,
0,
0,
0,
0,
0,
0,
0,
0,
0,
0,
0,
0,
0,
0,
0,
0,
0,
0,
0,
0,
0,
0,
0,
0,
0,
0,
0,
0,
0,
0,
0,
1,
0,
0,
0,
0,
0,
0,
0,
0,
0,
0,
0,
0,
0,
0,
0,
0,
0,
0,
0,
0,
0,
0,
0,
0,
0,
0,
0,
0,
0,
0,
0,
0,
0,
0,
0,
0,
0,
0,
0,
0,
0,
0,
0,
0,
0,
0,
0,
0,
0,
0,
0,
0,
0,
0,
0,
0,
0,
0,
0,
0,
0,
0,
0,
0,
0,
0,
#ENDOFDATA   :

File: TmP5O14 std.msa
#FORMAT      : EMSA/MAS Spectral Data File
#VERSION     : 1.0
#TITLE       : TmP5O14 standard for 'N132962' detector
#NPOINTS     : 4096
#NCOLUMNS    : 1
#XUNITS      : eV
#YUNITS      : counts
#DATATYPE    : Y
#SIGNALTYPE  : EDS
#XLABEL      : Energy (eV)
#YLABEL      : Counts
#XPERCHAN -eV: 9.99778
#OFFSET   -eV: 1.69135
#CHOFFSET    : 0
#DATE        : 17-Mar-2025
#TIME        : 15:40:00
#OWNER       : Unknown
#ELEVANGLE   : 35
#BEAMKV   -kV: 15
#LIVETIME  -s: 1438.617
#REALTIME  -s: 1519.47
#PROBECUR -nA: 1.0242
##WORKING -mm: 15
##D2STDCMP   : TmP5O14,(O:40.8891),(P:28.2716),(Tm:30.8393)
##SIMILAR    : 1.1
#SPECTRUM    :
161,
2297,
99297,
45739,
331184,
24548,
28809,
32443,
73653,
36050,
91075,
145206,
40857,
31666,
349694,
105520,
19095,
17229,
18699,
16968,
16363,
16111,
15614,
15559,
15097,
15099,
14225,
13602,
13401,
13345,
12074,
11928,
11418,
11121,
10937,
10481,
10171,
9880,
9486,
9259,
8681,
8292,
8182,
7925,
7608,
8769,
7969,
6978,
6739,
6479,
7459,
41754,
15481,
5789,
5441,
5291,
5103,
8389,
18718,
7102,
8749,
7801,
3951,
3771,
3574,
3482,
3458,
5138,
3909,
3159,
3349,
2771,
2584,
2423,
2361,
2180,
2099,
2030,
1888,
1887,
1736,
1629,
1553,
1418,
1356,
1290,
1179,
1161,
1007,
956,
874,
790,
782,
699,
610,
548,
493,
396,
414,
363,
299,
227,
207,
184,
132,
90,
46,
11,
7,
9,
4,
5,
3,
3,
3,
2,
4,
5,
1,
2,
0,
3,
3,
2,
1,
1,
1,
3,
3,
1,
1,
2,
1,
0,
1,
1,
0,
1,
1,
2,
1,
0,
0,
0,
1,
0,
0,
0,
0,
0,
0,
0,
0,
0,
1,
0,
0,
0,
0,
0,
1,
2,
0,
0,
0,
0,
0,
0,
0,
0,
0,
0,
0,
0,
0,
0,
0,
0,
0,
0,
0,
0,
0,
0,
0,
0,
0,
0,
0,
0,
0,
0,
0,
0,
0,
0,
0,
0,
0,
0,
0,
0,
0,
0,
0,
0,
0,
0,
0,
0,
0,
0,
0,
0,
0,
0,
0,
0,
0,
0,
0,
0,
0,
0,
0,
0,
0,
0,
0,
0,
0,
0,
0,
0,
0,
0,
0,
0,
0,
0,
0,
0,
0,
0,
0,
0,
0,
0,
0,
0,
0,
0,
0,
0,
0,
0,
0,
0,
0,
0,
0,
0,
0,
0,
0,
0,
0,
0,
0,
0,
0,
0,
0,
0,
0,
0,
0,
0,
0,
0,
0,
0,
0,
0,
0,
0,
0,
0,
0,
0,
0,
0,
0,
0,
#ENDOFDATA   :

File: V std.msa
#FORMAT      : EMSA/MAS Spectral Data File
#VERSION     : 1.0
#TITLE       : V standard for 'N132962' detector
#NPOINTS     : 4096
#NCOLUMNS    : 1
#XUNITS      : eV
#YUNITS      : counts
#DATATYPE    : Y
#SIGNALTYPE  : EDS
#XLABEL      : Energy (eV)
#YLABEL      : Counts
#XPERCHAN -eV: 9.99778
#OFFSET   -eV: 1.69135
#CHOFFSET    : 0
#DATE        : 25-Sep-2025
#TIME        : 23:28:00
#OWNER       : Unknown
#ELEVANGLE   : 35
#BEAMKV   -kV: 15
#LIVETIME  -s: 1679.83
#REALTIME  -s: 1800.17
#PROBECUR -nA: 1.20539
##WORKING -mm: 15
##D2STDCMP   : V,(V:100.0000)
##SIMILAR    : 1.3
#SPECTRUM    :
174,
3238,
100500,
529003,
148310,
19309,
25703,
32333,
35224,
40371,
42252,
44507,
45380,
45465,
38706,
37564,
37030,
35308,
33819,
33277,
30977,
33769,
30302,
37245,
26442,
24907,
24295,
22592,
21827,
20971,
20251,
19461,
19170,
18557,
26675,
878357,
322561,
17805,
47278,
155030,
12427,
10814,
10800,
10493,
10014,
9793,
9851,
9363,
9054,
8563,
8387,
8039,
7837,
7519,
7438,
7009,
6754,
6761,
6337,
6087,
5923,
5747,
5621,
5305,
5106,
4800,
4698,
4538,
4303,
4146,
4572,
5010,
3764,
3484,
3598,
3283,
2844,
2951,
2740,
2668,
2408,
2275,
2043,
2023,
1845,
1689,
1642,
1524,
1410,
1326,
1168,
1110,
1016,
889,
817,
747,
624,
614,
518,
464,
364,
320,
241,
207,
140,
106,
58,
21,
11,
19,
10,
8,
16,
6,
8,
10,
15,
3,
9,
6,
6,
6,
5,
8,
12,
4,
6,
8,
3,
1,
5,
3,
5,
5,
5,
2,
4,
3,
2,
0,
2,
2,
0,
0,
1,
2,
0,
0,
1,
0,
0,
0,
0,
0,
0,
0,
0,
0,
0,
0,
0,
0,
0,
0,
1,
0,
0,
0,
0,
0,
0,
0,
0,
0,
0,
0,
0,
0,
0,
0,
0,
0,
0,
0,
0,
0,
0,
0,
0,
0,
0,
0,
0,
0,
0,
0,
0,
0,
0,
0,
0,
0,
0,
0,
0,
0,
0,
0,
0,
0,
0,
0,
0,
0,
0,
0,
0,
0,
0,
0,
0,
0,
0,
0,
0,
0,
0,
0,
0,
0,
0,
0,
0,
0,
0,
0,
0,
0,
0,
0,
0,
0,
0,
0,
0,
0,
0,
0,
0,
0,
0,
0,
0,
0,
0,
0,
0,
0,
0,
0,
0,
0,
0,
0,
0,
0,
0,
0,
0,
0,
0,
0,
0,
0,
0,
0,
0,
0,
0,
0,
0,
0,
0,
0,
0,
0,
0,
0,
0,
0,
0,
0,
0,
0,
#ENDOFDATA   :

File: W std.msa
#FORMAT      : EMSA/MAS Spectral Data File
#VERSION     : 1.0
#TITLE       : W standard for 'N132962' detector
#NPOINTS     : 4096
#NCOLUMNS    : 1
#XUNITS      : eV
#YUNITS      : counts
#DATATYPE    : Y
#SIGNALTYPE  : EDS
#XLABEL      : Energy (eV)
#YLABEL      : Counts
#XPERCHAN -eV: 9.99778
#OFFSET   -eV: 1.69135
#CHOFFSET    : 0
#DATE        : 27-Sep-2025
#TIME        : 21:10:00
#OWNER       : Unknown
#ELEVANGLE   : 35
#BEAMKV   -kV: 15
#LIVETIME  -s: 2159.07
#REALTIME  -s: 2413.65
#PROBECUR -nA: 1.21182
##WORKING -mm: 15
##D2STDCMP   : W,(W:100.0000)
##SIMILAR    : 1.1
#SPECTRUM    :
233,
7979,
132362,
61582,
81613,
95209,
114018,
131874,
128362,
134242,
332099,
139249,
318461,
2668623,
82320,
74219,
65065,
67120,
57747,
56780,
58031,
56570,
57469,
58359,
57202,
61126,
62781,
55867,
55001,
54501,
53527,
52772,
51667,
50557,
49768,
48970,
47787,
46768,
45801,
45265,
43673,
42473,
41315,
39907,
39363,
38452,
38190,
36400,
35021,
34352,
32952,
32522,
33810,
38190,
29818,
28714,
27769,
27420,
27382,
57179,
196715,
37652,
24475,
22739,
21706,
20442,
20108,
20209,
29001,
65123,
32822,
47871,
23146,
16736,
14199,
13591,
12993,
12537,
12381,
12139,
15578,
15861,
11056,
11500,
9812,
8876,
8492,
7593,
7120,
6780,
6360,
5950,
5586,
5340,
4742,
4433,
4104,
3663,
3268,
2970,
2646,
2255,
1963,
1598,
1265,
991,
625,
255,
104,
66,
90,
78,
67,
67,
67,
58,
42,
55,
36,
48,
50,
61,
50,
52,
29,
37,
39,
38,
47,
50,
40,
50,
34,
29,
22,
25,
21,
23,
21,
26,
23,
28,
18,
23,
23,
14,
13,
15,
17,
12,
10,
15,
9,
9,
12,
4,
7,
7,
4,
6,
8,
2,
6,
5,
6,
2,
2,
3,
2,
3,
0,
4,
1,
3,
3,
1,
0,
0,
2,
2,
3,
2,
0,
2,
0,
1,
0,
3,
1,
1,
0,
0,
0,
0,
0,
0,
0,
0,
0,
0,
0,
1,
0,
0,
0,
0,
0,
0,
0,
0,
0,
0,
0,
0,
0,
0,
0,
0,
0,
0,
0,
0,
0,
0,
0,
0,
0,
0,
0,
0,
0,
0,
0,
0,
0,
0,
0,
0,
0,
0,
0,
0,
0,
0,
0,
0,
0,
0,
0,
0,
0,
0,
0,
0,
0,
0,
0,
0,
0,
0,
0,
0,
0,
0,
0,
0,
0,
0,
0,
0,
0,
0,
0,
0,
0,
0,
0,
0,
0,
0,
0,
0,
0,
0,
0,
0,
0,
0,
0,
0,
0,
0,
0,
0,
#ENDOFDATA   :

File: Y std.msa
#FORMAT      : EMSA/MAS Spectral Data File
#VERSION     : 1.0
#TITLE       : Y standard for 'N132962' detector
#NPOINTS     : 4096
#NCOLUMNS    : 1
#XUNITS      : eV
#YUNITS      : counts
#DATATYPE    : Y
#SIGNALTYPE  : EDS
#XLABEL      : Energy (eV)
#YLABEL      : Counts
#XPERCHAN -eV: 9.99778
#OFFSET   -eV: 1.69135
#CHOFFSET    : 0
#DATE        : 30-Sep-2025
#TIME        : 17:38:00
#OWNER       : Unknown
#ELEVANGLE   : 35
#BEAMKV   -kV: 15
#LIVETIME  -s: 1681.6
#REALTIME  -s: 1845.27
#PROBECUR -nA: 1.23077
##WORKING -mm: 15
##D2STDCMP   : Y,(Y:100.0000)
##SIMILAR    : 3.9
#SPECTRUM    :
188,
20369,
66574,
40711,
119091,
172236,
58496,
65509,
71904,
76763,
80777,
81585,
198359,
269594,
2044127,
176143,
34293,
39605,
31160,
32978,
31003,
31405,
31277,
30977,
30733,
30214,
30363,
31750,
33746,
28233,
26711,
25845,
28185,
24858,
23966,
23552,
22778,
22224,
21247,
20467,
20045,
19633,
18744,
18449,
17640,
17210,
16910,
15888,
15391,
14870,
14334,
14067,
13528,
13231,
12580,
12318,
11826,
11399,
10970,
10657,
10131,
9691,
9388,
9207,
8761,
8388,
8213,
7742,
7504,
7284,
6851,
6699,
6466,
6064,
5852,
5539,
5253,
4948,
4759,
4481,
4307,
3931,
3856,
3703,
3405,
3273,
2843,
2786,
2676,
2482,
2324,
2035,
1897,
1664,
1573,
1430,
1276,
1131,
982,
898,
674,
658,
494,
424,
317,
198,
103,
56,
29,
17,
14,
11,
11,
17,
15,
8,
8,
8,
6,
6,
7,
7,
4,
4,
8,
7,
7,
6,
6,
5,
3,
3,
3,
5,
5,
4,
2,
4,
7,
2,
2,
1,
3,
1,
4,
1,
3,
0,
2,
2,
1,
0,
1,
1,
1,
1,
0,
2,
0,
0,
0,
1,
0,
0,
0,
0,
1,
0,
2,
1,
0,
2,
1,
0,
0,
0,
0,
1,
1,
0,
1,
0,
0,
0,
0,
0,
0,
0,
0,
0,
1,
0,
0,
0,
0,
0,
0,
0,
0,
0,
0,
0,
0,
0,
0,
0,
0,
0,
0,
0,
0,
0,
0,
0,
0,
0,
0,
0,
0,
0,
0,
0,
0,
0,
0,
0,
0,
0,
0,
0,
0,
0,
0,
0,
0,
0,
0,
0,
0,
0,
0,
0,
0,
0,
0,
0,
0,
0,
0,
0,
0,
0,
0,
0,
0,
0,
0,
0,
0,
0,
0,
0,
0,
0,
0,
0,
0,
0,
0,
0,
0,
0,
0,
0,
0,
0,
0,
0,
0,
0,
0,
0,
0,
0,
0,
0,
0,
0,
0,
0,
0,
0,
0,
0,
#ENDOFDATA   :

File: Yb std.msa
#FORMAT      : EMSA/MAS Spectral Data File
#VERSION     : 1.0
#TITLE       : Yb standard for 'N132962' detector
#NPOINTS     : 4096
#NCOLUMNS    : 1
#XUNITS      : eV
#YUNITS      : counts
#DATATYPE    : Y
#SIGNALTYPE  : EDS
#XLABEL      : Energy (eV)
#YLABEL      : Counts
#XPERCHAN -eV: 9.99778
#OFFSET   -eV: 1.69135
#CHOFFSET    : 0
#DATE        : 26-Sep-2025
#TIME        : 18:25:00
#OWNER       : Unknown
#ELEVANGLE   : 35
#BEAMKV   -kV: 15
#LIVETIME  -s: 1200.35
#REALTIME  -s: 1321.62
#PROBECUR -nA: 1.21629
##WORKING -mm: 15
##D2STDCMP   : Yb,(Yb:100.0000)
##SIMILAR    : 5.9
#SPECTRUM    :
121,
4624,
65544,
45447,
99370,
87391,
63357,
66396,
107579,
88822,
93054,
1347455,
46067,
46314,
39599,
32069,
30339,
31250,
31230,
32536,
31868,
32314,
34209,
31521,
31162,
30522,
30685,
29885,
29565,
28727,
28186,
27257,
27322,
26023,
25537,
25285,
24096,
23808,
23425,
23095,
22182,
21500,
20722,
19964,
19575,
19571,
22062,
23732,
17790,
16796,
17018,
16221,
36509,
165096,
25248,
14495,
13456,
13302,
13113,
21651,
65652,
24499,
26914,
25758,
10944,
9367,
9067,
8919,
8902,
10721,
15995,
8813,
9640,
8060,
7012,
6835,
6168,
5993,
5763,
5623,
5307,
5151,
4859,
4456,
4377,
4138,
3930,
3682,
3438,
3164,
3012,
2727,
2630,
2388,
2257,
2030,
1888,
1629,
1478,
1397,
1174,
996,
847,
723,
557,
402,
271,
111,
34,
36,
37,
30,
46,
42,
35,
34,
38,
13,
18,
22,
19,
28,
29,
38,
22,
20,
23,
13,
18,
16,
20,
21,
20,
10,
17,
16,
8,
12,
5,
15,
6,
9,
6,
9,
5,
3,
5,
5,
11,
4,
2,
3,
4,
3,
2,
6,
6,
3,
3,
3,
2,
1,
4,
1,
1,
1,
0,
1,
1,
1,
2,
2,
0,
0,
0,
0,
0,
0,
1,
0,
0,
0,
0,
1,
0,
0,
0,
0,
1,
0,
0,
0,
0,
0,
0,
1,
0,
0,
0,
0,
0,
0,
0,
0,
0,
0,
0,
0,
0,
0,
0,
0,
0,
0,
0,
0,
0,
0,
0,
0,
0,
0,
0,
0,
0,
0,
0,
0,
0,
0,
0,
0,
0,
0,
0,
0,
0,
0,
0,
0,
0,
0,
0,
0,
0,
0,
0,
0,
0,
0,
0,
0,
0,
0,
0,
0,
0,
0,
0,
0,
0,
0,
0,
0,
0,
0,
0,
0,
0,
0,
0,
0,
0,
0,
0,
0,
0,
0,
0,
0,
0,
0,
0,
0,
0,
0,
0,
0,
0,
0,
0,
0,
0,
0,
#ENDOFDATA   :