Folder: spex_quant/N132962/Standards/15 keV

Note: README.md
# spex_quant
Spectral data for evaluating `spex`.  It contains both standard spectra and sample spectra.

 * N132962 represents the TESCAN MIRA4 with 4 silicon nitride window silicon drift detectors in 217 D113 at NIST Gaitherburg.
  * Reference set: "N132962 20 keV" built using 'n132962_20keV.bat' for 20 keV analyses

File: Ag std.msa
#FORMAT      : EMSA/MAS Spectral Data File
#VERSION     : 1.0
#TITLE       : Ag standard for 'N132962' detector
#NPOINTS     : 4096
#NCOLUMNS    : 1
#XUNITS      : eV
#YUNITS      : counts
#DATATYPE    : Y
#SIGNALTYPE  : EDS
#XLABEL      : Energy (eV)
#YLABEL      : Counts
#XPERCHAN -eV: 9.99778
#OFFSET   -eV: 1.69135
#CHOFFSET    : 0
#DATE        : 25-Sep-2025
#TIME        : 20:20:00
#OWNER       : Unknown
#ELEVANGLE   : 35
#BEAMKV   -kV: 15
#LIVETIME  -s: 1199.5
#REALTIME  -s: 1308.17
#PROBECUR -nA: 1.20924
##WORKING -mm: 15
##D2STDCMP   : Ag,(Ag:100.0000)
##SIMILAR    : 4.4
#SPECTRUM    :
115,
7817,
244430,
33108,
40631,
29416,
31774,
36955,
41146,
80999,
54667,
48741,
47809,
48083,
41443,
41525,
46717,
44403,
42620,
86218,
57393,
627293,
249344,
248740,
126251,
52163,
22636,
28610,
18710,
18673,
18738,
18663,
20016,
18487,
17787,
17673,
17179,
17022,
16719,
16301,
15908,
15648,
15297,
15389,
15254,
14337,
14151,
13192,
12764,
12418,
11969,
11688,
11373,
11156,
10859,
10309,
10086,
10198,
9548,
9115,
8914,
8644,
8238,
7812,
7673,
7404,
7125,
6775,
6746,
6364,
6119,
6113,
5695,
5425,
5363,
5833,
5075,
4528,
4319,
4186,
4090,
3793,
3494,
3331,
3310,
2993,
2720,
2643,
2451,
2269,
2116,
2016,
1814,
1700,
1538,
1369,
1295,
1151,
970,
936,
811,
655,
531,
423,
352,
260,
146,
72,
18,
18,
17,
22,
20,
21,
13,
7,
23,
13,
10,
14,
10,
14,
10,
10,
9,
13,
5,
7,
3,
4,
3,
5,
6,
2,
2,
2,
1,
4,
2,
2,
4,
2,
5,
3,
1,
1,
2,
2,
2,
1,
1,
2,
2,
1,
2,
1,
0,
0,
3,
0,
0,
1,
1,
3,
1,
0,
0,
0,
0,
0,
0,
1,
1,
0,
0,
0,
2,
1,
0,
0,
0,
1,
0,
0,
0,
0,
0,
0,
0,
0,
0,
0,
0,
0,
0,
0,
0,
0,
0,
0,
0,
0,
0,
0,
0,
0,
0,
0,
0,
0,
0,
0,
0,
0,
0,
0,
0,
0,
0,
0,
0,
0,
0,
0,
0,
0,
0,
0,
0,
0,
0,
0,
0,
0,
0,
0,
0,
0,
0,
0,
0,
0,
0,
0,
0,
0,
0,
0,
0,
0,
0,
0,
0,
0,
0,
0,
0,
0,
0,
0,
0,
0,
0,
0,
0,
0,
0,
0,
0,
0,
0,
0,
0,
0,
0,
0,
0,
0,
0,
0,
0,
0,
0,
0,
0,
0,
0,
0,
0,
0,
0,
0,
0,
0,
#ENDOFDATA   :

File: Al2O3 std.msa
#FORMAT      : EMSA/MAS Spectral Data File
#VERSION     : 1.0
#TITLE       : Al2O3 standard for 'N132962' detector
#NPOINTS     : 4096
#NCOLUMNS    : 1
#XUNITS      : eV
#YUNITS      : counts
#DATATYPE    : Y
#SIGNALTYPE  : EDS
#XLABEL      : Energy (eV)
#YLABEL      : Counts
#XPERCHAN -eV: 9.99778
#OFFSET   -eV: 1.69135
#CHOFFSET    : 0
#DATE        : 30-Sep-2025
#TIME        : 16:22:00
#OWNER       : Unknown
#ELEVANGLE   : 35
#BEAMKV   -kV: 15
#LIVETIME  -s: 959.685
#REALTIME  -s: 1039.53
#PROBECUR -nA: 1.22939
##WORKING -mm: 15
##D2STDCMP   : Al2O3,(O:47.0743),(Al:52.9257)
##SIMILAR    : 1.1
#SPECTRUM    :
114,
964,
22107,
44981,
408644,
13188,
15306,
18381,
19760,
25114,
142306,
649118,
10152,
10236,
14229,
9777,
9105,
8947,
8644,
8415,
8130,
12197,
7871,
7050,
6770,
6710,
6005,
5822,
5677,
5510,
5009,
4931,
4782,
4510,
4354,
4098,
4068,
3857,
3622,
3496,
3376,
3171,
3097,
3045,
2869,
2789,
2842,
2493,
2331,
2375,
2226,
2126,
2004,
2052,
1913,
1776,
1666,
1681,
1612,
1513,
1457,
1394,
1368,
1279,
1168,
1101,
1099,
1056,
1023,
943,
913,
874,
848,
813,
712,
723,
695,
616,
553,
588,
503,
457,
454,
447,
378,
381,
329,
307,
321,
243,
247,
249,
213,
207,
163,
173,
143,
110,
120,
106,
70,
64,
59,
52,
40,
21,
8,
2,
3,
3,
0,
0,
0,
0,
1,
0,
0,
1,
0,
1,
0,
0,
0,
0,
0,
1,
0,
0,
0,
0,
0,
0,
0,
0,
0,
0,
1,
0,
0,
0,
1,
0,
0,
0,
0,
0,
0,
0,
0,
1,
0,
0,
0,
0,
0,
0,
0,
0,
0,
0,
0,
0,
0,
0,
0,
0,
0,
0,
0,
0,
0,
0,
0,
0,
0,
0,
0,
0,
0,
0,
0,
0,
0,
0,
0,
0,
0,
0,
0,
0,
0,
0,
0,
0,
0,
0,
0,
0,
0,
0,
0,
0,
0,
0,
0,
0,
0,
0,
0,
0,
0,
0,
0,
0,
0,
0,
0,
0,
0,
0,
0,
0,
0,
0,
0,
0,
0,
0,
0,
0,
0,
0,
0,
0,
0,
0,
0,
0,
0,
0,
0,
0,
0,
0,
0,
0,
0,
0,
0,
0,
0,
0,
0,
0,
0,
0,
0,
0,
0,
0,
0,
0,
0,
0,
0,
0,
0,
0,
0,
0,
0,
0,
0,
0,
0,
0,
0,
0,
0,
0,
0,
0,
0,
0,
0,
0,
0,
0,
0,
0,
0,
0,
0,
0,
#ENDOFDATA   :

File: Al std.msa
#FORMAT      : EMSA/MAS Spectral Data File
#VERSION     : 1.0
#TITLE       : Al standard for 'N132962' detector
#NPOINTS     : 4096
#NCOLUMNS    : 1
#XUNITS      : eV
#YUNITS      : counts
#DATATYPE    : Y
#SIGNALTYPE  : EDS
#XLABEL      : Energy (eV)
#YLABEL      : Counts
#XPERCHAN -eV: 9.99778
#OFFSET   -eV: 1.69135
#CHOFFSET    : 0
#DATE        : 26-Sep-2025
#TIME        : 20:00:00
#OWNER       : Unknown
#ELEVANGLE   : 35
#BEAMKV   -kV: 15
#LIVETIME  -s: 2162.08
#REALTIME  -s: 2433.76
#PROBECUR -nA: 1.21382
##WORKING -mm: 15
##D2STDCMP   : Al,(Al:100.0000)
##SIMILAR    : 2.5
#SPECTRUM    :
245,
1889,
34331,
35766,
94320,
73794,
72902,
75853,
79477,
101100,
719158,
3172230,
23033,
22502,
22094,
21899,
22205,
22340,
22178,
22214,
21887,
75200,
25211,
18730,
17886,
17690,
16738,
15916,
15407,
14854,
14568,
13990,
13573,
12848,
12344,
11701,
11308,
11037,
10789,
10408,
9634,
9217,
9008,
8423,
8327,
8086,
7857,
7243,
6931,
6674,
6466,
6167,
5999,
5890,
5581,
5309,
5067,
4847,
4614,
4409,
4332,
4075,
3995,
3793,
3551,
3433,
3341,
3213,
2959,
2957,
2682,
2611,
2436,
2325,
2157,
2208,
2088,
1898,
1845,
1591,
1595,
1534,
1396,
1366,
1177,
1203,
1089,
1008,
948,
861,
774,
732,
652,
607,
507,
449,
389,
399,
322,
283,
269,
231,
163,
143,
104,
87,
35,
22,
7,
12,
5,
4,
6,
2,
2,
2,
0,
2,
0,
1,
0,
3,
0,
2,
1,
2,
2,
1,
0,
2,
0,
1,
1,
0,
0,
3,
0,
0,
1,
0,
0,
0,
0,
0,
0,
1,
0,
0,
1,
0,
0,
0,
0,
1,
0,
0,
0,
0,
0,
1,
0,
0,
0,
0,
0,
0,
1,
0,
1,
0,
0,
0,
0,
0,
0,
0,
0,
0,
0,
0,
0,
0,
0,
0,
0,
0,
0,
0,
0,
0,
0,
0,
0,
0,
0,
0,
0,
0,
0,
0,
0,
0,
0,
0,
0,
0,
0,
0,
0,
0,
0,
0,
0,
0,
0,
0,
0,
0,
0,
0,
0,
0,
0,
0,
0,
0,
0,
0,
0,
0,
0,
0,
0,
0,
0,
0,
0,
0,
0,
0,
0,
0,
0,
0,
0,
0,
0,
0,
0,
0,
0,
0,
0,
0,
0,
0,
0,
0,
0,
0,
0,
0,
0,
0,
0,
0,
0,
0,
0,
0,
0,
0,
0,
0,
0,
0,
0,
0,
0,
0,
0,
0,
0,
0,
0,
0,
0,
0,
0,
0,
0,
0,
0,
0,
#ENDOFDATA   :

File: AlN std.msa
#FORMAT      : EMSA/MAS Spectral Data File
#VERSION     : 1.0
#TITLE       : AlN standard for 'N132962' detector
#NPOINTS     : 4096
#NCOLUMNS    : 1
#XUNITS      : eV
#YUNITS      : counts
#DATATYPE    : Y
#SIGNALTYPE  : EDS
#XLABEL      : Energy (eV)
#YLABEL      : Counts
#XPERCHAN -eV: 9.99778
#OFFSET   -eV: 1.69135
#CHOFFSET    : 0
#DATE        : 27-Sep-2025
#TIME        : 15:46:00
#OWNER       : Unknown
#ELEVANGLE   : 35
#BEAMKV   -kV: 15
#LIVETIME  -s: 960.132
#REALTIME  -s: 1038.76
#PROBECUR -nA: 1.21
##WORKING -mm: 15
##D2STDCMP   : AlN,(N:34.1730),(Al:65.8270)
##SIMILAR    : 27.2
#SPECTRUM    :
118,
879,
27846,
133045,
13274,
16325,
20452,
22862,
23957,
30631,
192763,
856951,
9890,
11690,
10738,
8875,
8917,
8650,
8576,
8429,
8241,
15700,
8479,
7087,
6819,
6528,
6161,
5795,
5618,
5343,
5115,
4913,
4736,
4564,
4400,
4215,
4138,
3834,
3707,
3619,
3365,
3387,
3075,
2971,
2942,
2756,
2772,
2529,
2341,
2437,
2267,
2112,
2021,
1985,
1911,
1803,
1737,
1703,
1599,
1567,
1498,
1387,
1377,
1282,
1166,
1109,
1133,
1050,
1047,
1042,
971,
869,
807,
766,
773,
746,
666,
596,
566,
559,
544,
471,
463,
411,
374,
386,
366,
337,
303,
293,
250,
268,
190,
198,
185,
174,
129,
128,
111,
109,
86,
60,
41,
38,
30,
18,
14,
0,
2,
1,
1,
1,
0,
0,
1,
0,
0,
0,
1,
0,
0,
0,
0,
1,
0,
0,
0,
0,
0,
0,
0,
1,
0,
2,
0,
0,
0,
0,
0,
0,
0,
1,
0,
0,
1,
0,
0,
0,
0,
0,
0,
0,
0,
0,
0,
0,
0,
0,
0,
0,
0,
1,
0,
0,
0,
0,
0,
0,
0,
0,
0,
0,
0,
0,
0,
0,
0,
0,
0,
0,
0,
0,
0,
0,
0,
0,
0,
0,
0,
0,
0,
0,
0,
0,
0,
0,
0,
0,
0,
0,
0,
0,
0,
0,
0,
0,
0,
0,
0,
0,
0,
0,
0,
0,
0,
0,
0,
0,
0,
0,
0,
0,
0,
0,
0,
0,
0,
0,
0,
0,
0,
0,
0,
0,
0,
0,
0,
0,
0,
0,
0,
0,
0,
0,
0,
0,
0,
0,
0,
0,
0,
0,
0,
0,
0,
0,
0,
0,
0,
0,
0,
0,
0,
0,
0,
0,
0,
0,
0,
0,
0,
0,
0,
0,
0,
0,
0,
0,
0,
0,
0,
0,
0,
0,
0,
0,
0,
0,
0,
0,
0,
0,
0,
0,
#ENDOFDATA   :

File: As std.msa
#FORMAT      : EMSA/MAS Spectral Data File
#VERSION     : 1.0
#TITLE       : As standard for 'N132962' detector
#NPOINTS     : 4096
#NCOLUMNS    : 1
#XUNITS      : eV
#YUNITS      : counts
#DATATYPE    : Y
#SIGNALTYPE  : EDS
#XLABEL      : Energy (eV)
#YLABEL      : Counts
#XPERCHAN -eV: 9.99778
#OFFSET   -eV: 1.69135
#CHOFFSET    : 0
#DATE        : 25-Sep-2025
#TIME        : 20:57:00
#OWNER       : Unknown
#ELEVANGLE   : 35
#BEAMKV   -kV: 15
#LIVETIME  -s: 1196.31
#REALTIME  -s: 1288.5
#PROBECUR -nA: 1.20952
##WORKING -mm: 15
##D2STDCMP   : As,(As:100.0000)
##SIMILAR    : 31.8
#SPECTRUM    :
128,
1574,
37888,
41026,
174608,
29774,
35940,
40499,
139281,
1499597,
78071,
18143,
19150,
22363,
17558,
17886,
18992,
19421,
21081,
20343,
17852,
18058,
17501,
17068,
16626,
16256,
17079,
15816,
15249,
14723,
13933,
13644,
14046,
13002,
12439,
12211,
11827,
11406,
11064,
10667,
10231,
9894,
9456,
9199,
8936,
8724,
8479,
7845,
7665,
7462,
7078,
6932,
6692,
6572,
6246,
5889,
5819,
5640,
5454,
5140,
4849,
4852,
4673,
4535,
4290,
4035,
3901,
3793,
3588,
3474,
3321,
3072,
3146,
3034,
5679,
33752,
11797,
2508,
2312,
2145,
2031,
2009,
1886,
3686,
5266,
1897,
1300,
1227,
1081,
1045,
971,
881,
862,
785,
658,
620,
523,
484,
436,
391,
334,
268,
232,
196,
145,
105,
52,
27,
11,
8,
9,
5,
6,
6,
4,
3,
2,
2,
2,
1,
3,
4,
3,
4,
6,
3,
3,
2,
0,
4,
2,
2,
4,
3,
6,
1,
2,
1,
3,
4,
0,
0,
4,
0,
0,
1,
0,
1,
2,
1,
3,
3,
0,
1,
1,
0,
1,
0,
2,
2,
0,
1,
0,
1,
0,
1,
1,
0,
0,
0,
0,
0,
0,
0,
0,
0,
0,
0,
0,
0,
0,
0,
0,
0,
0,
0,
0,
0,
0,
0,
0,
0,
0,
0,
0,
0,
0,
0,
0,
0,
0,
0,
0,
0,
0,
0,
0,
0,
0,
0,
0,
0,
0,
0,
0,
0,
0,
0,
0,
0,
0,
0,
0,
0,
0,
0,
0,
0,
0,
0,
0,
0,
0,
0,
0,
0,
0,
0,
0,
0,
0,
0,
0,
0,
0,
0,
0,
0,
0,
0,
0,
0,
0,
0,
0,
0,
0,
0,
0,
0,
0,
0,
0,
0,
0,
0,
0,
0,
0,
0,
0,
0,
0,
0,
0,
0,
0,
0,
0,
0,
0,
0,
0,
0,
0,
0,
0,
0,
0,
0,
0,
0,
0,
0,
#ENDOFDATA   :

File: Au std.msa
#FORMAT      : EMSA/MAS Spectral Data File
#VERSION     : 1.0
#TITLE       : Au standard for 'N132962' detector
#NPOINTS     : 4096
#NCOLUMNS    : 1
#XUNITS      : eV
#YUNITS      : counts
#DATATYPE    : Y
#SIGNALTYPE  : EDS
#XLABEL      : Energy (eV)
#YLABEL      : Counts
#XPERCHAN -eV: 9.99778
#OFFSET   -eV: 1.69135
#CHOFFSET    : 0
#DATE        : 26-Sep-2025
#TIME        : 15:15:00
#OWNER       : Unknown
#ELEVANGLE   : 35
#BEAMKV   -kV: 15
#LIVETIME  -s: 1921.25
#REALTIME  -s: 2135.46
#PROBECUR -nA: 1.22003
##WORKING -mm: 15
##D2STDCMP   : Au,(Au:100.0000)
##SIMILAR    : 1.3
#SPECTRUM    :
211,
12802,
116446,
85017,
72382,
81734,
90229,
95770,
101113,
105293,
110565,
121748,
234587,
116643,
143223,
1817651,
884699,
113195,
54678,
58255,
70168,
51626,
50737,
49627,
51024,
48352,
48473,
49250,
48300,
47656,
49259,
50730,
46178,
44929,
43948,
43400,
42624,
41991,
41445,
40749,
39378,
38253,
37390,
36744,
35480,
35487,
36188,
32937,
32027,
31063,
30594,
29527,
28414,
28533,
27313,
26338,
25643,
24812,
24217,
23552,
23949,
24229,
21520,
20592,
20041,
19087,
18847,
18399,
21091,
64947,
38642,
16381,
15146,
14638,
13982,
13549,
12685,
12354,
11845,
11707,
11623,
12868,
19003,
17862,
9822,
9284,
7716,
6946,
6800,
6227,
6004,
5627,
5221,
4967,
4574,
4707,
4404,
3608,
3330,
2952,
2481,
2198,
1886,
1560,
1287,
904,
560,
235,
80,
86,
67,
62,
59,
49,
57,
46,
56,
51,
45,
39,
37,
25,
34,
32,
30,
36,
22,
33,
27,
30,
21,
18,
25,
23,
23,
25,
22,
23,
26,
19,
16,
10,
15,
10,
13,
13,
16,
11,
9,
9,
9,
11,
8,
9,
9,
10,
8,
9,
7,
6,
6,
6,
2,
4,
2,
3,
2,
3,
4,
2,
1,
2,
1,
2,
1,
1,
6,
2,
1,
1,
0,
0,
0,
1,
0,
0,
1,
1,
1,
0,
1,
0,
0,
0,
0,
1,
1,
0,
1,
1,
0,
0,
0,
0,
0,
0,
0,
0,
0,
0,
0,
0,
0,
0,
0,
0,
0,
0,
0,
0,
0,
0,
0,
0,
0,
0,
0,
0,
0,
0,
0,
0,
0,
0,
0,
0,
0,
0,
0,
0,
0,
0,
0,
0,
0,
0,
0,
0,
0,
0,
0,
0,
0,
0,
0,
0,
0,
0,
0,
0,
0,
0,
0,
0,
0,
0,
0,
0,
0,
0,
0,
0,
0,
0,
0,
0,
0,
0,
0,
0,
0,
0,
0,
0,
0,
0,
0,
0,
0,
0,
0,
0,
0,
0,
#ENDOFDATA   :

File: BaCl std.msa
#FORMAT      : EMSA/MAS Spectral Data File
#VERSION     : 1.0
#TITLE       : BaCl standard for 'N132962' detector
#NPOINTS     : 4096
#NCOLUMNS    : 1
#XUNITS      : eV
#YUNITS      : counts
#DATATYPE    : Y
#SIGNALTYPE  : EDS
#XLABEL      : Energy (eV)
#YLABEL      : Counts
#XPERCHAN -eV: 9.99778
#OFFSET   -eV: 1.69135
#CHOFFSET    : 0
#DATE        : 29-Sep-2025
#TIME        : 10:17:00
#OWNER       : Unknown
#ELEVANGLE   : 35
#BEAMKV   -kV: 15
#LIVETIME  -s: 715.975
#REALTIME  -s: 768.266
#PROBECUR -nA: 1.2156
##WORKING -mm: 15
##D2STDCMP   : BaCl,(Cl:20.5178),(Ba:79.4822)
##SIMILAR    : 4.7
#SPECTRUM    :
208,
18161,
19702,
14882,
58243,
28375,
26630,
23853,
16319,
15728,
16989,
18203,
18910,
19718,
16830,
16989,
17870,
17621,
54554,
340040,
55452,
13909,
13312,
12752,
12532,
12173,
12088,
11992,
16626,
12486,
11425,
23585,
184368,
13381,
44240,
58430,
15386,
37237,
9010,
12771,
12939,
9933,
8817,
6986,
6158,
6376,
6219,
5863,
5857,
5776,
5696,
5586,
5360,
5320,
5014,
4873,
4806,
4546,
4491,
4314,
4280,
3982,
3967,
3867,
3678,
3545,
3458,
3430,
3255,
3141,
3002,
2794,
2810,
2652,
2513,
2448,
2254,
2154,
2112,
2015,
1887,
1768,
1662,
1680,
1545,
1471,
1390,
1261,
1193,
1117,
1014,
999,
869,
805,
748,
696,
643,
552,
504,
468,
395,
328,
277,
198,
188,
122,
61,
27,
11,
6,
13,
5,
8,
9,
3,
6,
7,
5,
2,
2,
8,
3,
3,
4,
5,
5,
7,
5,
0,
4,
1,
1,
1,
2,
1,
0,
1,
1,
1,
0,
4,
2,
3,
1,
0,
0,
2,
0,
0,
3,
0,
1,
0,
0,
0,
0,
0,
0,
0,
1,
0,
0,
0,
0,
0,
0,
1,
0,
0,
0,
0,
0,
0,
0,
0,
0,
1,
0,
0,
0,
0,
1,
0,
0,
0,
0,
0,
0,
0,
0,
0,
0,
0,
0,
0,
0,
0,
0,
0,
0,
0,
0,
0,
0,
0,
0,
0,
0,
0,
0,
0,
0,
0,
0,
0,
0,
0,
0,
0,
0,
0,
0,
0,
0,
0,
0,
0,
0,
0,
0,
0,
0,
0,
0,
0,
0,
0,
0,
0,
0,
0,
0,
0,
0,
0,
0,
0,
0,
0,
0,
0,
0,
0,
0,
0,
0,
0,
0,
0,
0,
0,
0,
0,
0,
0,
0,
0,
0,
0,
0,
0,
0,
0,
0,
0,
0,
0,
0,
0,
0,
0,
0,
0,
0,
0,
0,
0,
0,
0,
0,
0,
0,
0,
0,
#ENDOFDATA   :

File: BaF2 std.msa
#FORMAT      : EMSA/MAS Spectral Data File
#VERSION     : 1.0
#TITLE       : BaF2 standard for 'N132962' detector
#NPOINTS     : 4096
#NCOLUMNS    : 1
#XUNITS      : eV
#YUNITS      : counts
#DATATYPE    : Y
#SIGNALTYPE  : EDS
#XLABEL      : Energy (eV)
#YLABEL      : Counts
#XPERCHAN -eV: 9.99778
#OFFSET   -eV: 1.69135
#CHOFFSET    : 0
#DATE        : 26-Sep-2025
#TIME        : 19:07:00
#OWNER       : Unknown
#ELEVANGLE   : 35
#BEAMKV   -kV: 15
#LIVETIME  -s: 1435.99
#REALTIME  -s: 1555.26
#PROBECUR -nA: 1.21626
##WORKING -mm: 15
##D2STDCMP   : BaF2,(F:21.6724),(Ba:78.3276)
##SIMILAR    : 2.4
#SPECTRUM    :
849,
11890,
118999,
65359,
263456,
870980,
46173,
50005,
33683,
33763,
35555,
37837,
40528,
43992,
36769,
37171,
36921,
36707,
35959,
37673,
35107,
33266,
33649,
31434,
31211,
29548,
28726,
27851,
40388,
28913,
26573,
58322,
463302,
31554,
108724,
144862,
36917,
89386,
19810,
30196,
29907,
22827,
19938,
15585,
13832,
14093,
14895,
12940,
12618,
11967,
12117,
11811,
11095,
11087,
10895,
10376,
9968,
9893,
9677,
9231,
8708,
8541,
8204,
8076,
7777,
7443,
7239,
6962,
6707,
6458,
6201,
5935,
5698,
5420,
5269,
4814,
4799,
4470,
4421,
4158,
3972,
3726,
3551,
3330,
3094,
2952,
2789,
2606,
2333,
2264,
2126,
1925,
1744,
1611,
1526,
1288,
1232,
1082,
912,
808,
688,
552,
469,
385,
253,
157,
64,
26,
17,
11,
12,
12,
10,
14,
17,
10,
13,
9,
10,
12,
8,
10,
13,
15,
10,
10,
9,
7,
7,
3,
5,
4,
5,
5,
5,
3,
6,
2,
4,
7,
2,
3,
3,
2,
3,
0,
1,
2,
1,
0,
2,
0,
0,
3,
0,
1,
0,
2,
0,
1,
0,
0,
0,
0,
1,
0,
0,
0,
0,
2,
0,
0,
0,
0,
0,
0,
0,
0,
0,
1,
1,
0,
0,
0,
0,
0,
0,
0,
0,
0,
0,
0,
1,
0,
0,
0,
0,
0,
0,
0,
0,
0,
0,
0,
0,
0,
0,
0,
0,
0,
0,
0,
0,
0,
0,
0,
0,
0,
0,
0,
0,
0,
0,
0,
0,
0,
0,
0,
0,
0,
0,
0,
0,
0,
0,
0,
0,
0,
0,
0,
0,
0,
0,
0,
0,
0,
0,
0,
0,
0,
0,
0,
0,
0,
0,
0,
0,
0,
0,
0,
0,
0,
0,
0,
0,
0,
0,
0,
0,
0,
0,
0,
0,
0,
0,
0,
0,
0,
0,
0,
0,
0,
0,
0,
0,
0,
0,
0,
0,
0,
0,
0,
0,
0,
#ENDOFDATA   :

File: Bi std.msa
#FORMAT      : EMSA/MAS Spectral Data File
#VERSION     : 1.0
#TITLE       : Bi standard for 'N132962' detector
#NPOINTS     : 4096
#NCOLUMNS    : 1
#XUNITS      : eV
#YUNITS      : counts
#DATATYPE    : Y
#SIGNALTYPE  : EDS
#XLABEL      : Energy (eV)
#YLABEL      : Counts
#XPERCHAN -eV: 9.99778
#OFFSET   -eV: 1.69135
#CHOFFSET    : 0
#DATE        : 26-Sep-2025
#TIME        : 18:57:00
#OWNER       : Unknown
#ELEVANGLE   : 35
#BEAMKV   -kV: 15
#LIVETIME  -s: 1927.62
#REALTIME  -s: 2127.5
#PROBECUR -nA: 1.21626
##WORKING -mm: 15
##D2STDCMP   : Bi,(Bi:100.0000)
##SIMILAR    : 1.2
#SPECTRUM    :
161,
24836,
162775,
62786,
80231,
115301,
88764,
86493,
90077,
94977,
99234,
101843,
103766,
130528,
115176,
89887,
119513,
1034414,
1166440,
94068,
75827,
50083,
54736,
66382,
48596,
46664,
47886,
45384,
46336,
44078,
43874,
43351,
42950,
42111,
42235,
44122,
41813,
39689,
40023,
40104,
37133,
36412,
36249,
35020,
33688,
35393,
39445,
31317,
30605,
29846,
29975,
28613,
27378,
27628,
26182,
25110,
24450,
23650,
23406,
22656,
21850,
21143,
20416,
19872,
19305,
18440,
17985,
18168,
17336,
16372,
15685,
15160,
14531,
14091,
13778,
13166,
13878,
23806,
18074,
11326,
10475,
9983,
9791,
8985,
8437,
8312,
7680,
7301,
6811,
6807,
6222,
5827,
6686,
6941,
4794,
4522,
4031,
3322,
3118,
2849,
2394,
2069,
1817,
1489,
1201,
886,
539,
206,
82,
71,
61,
56,
39,
51,
50,
43,
37,
38,
48,
40,
33,
42,
28,
33,
40,
35,
27,
34,
24,
19,
35,
15,
17,
17,
14,
14,
12,
21,
9,
17,
13,
11,
12,
9,
4,
9,
10,
11,
10,
11,
8,
8,
9,
12,
4,
7,
6,
7,
7,
6,
5,
2,
7,
2,
3,
1,
6,
1,
6,
2,
2,
4,
2,
0,
1,
1,
0,
3,
2,
1,
1,
0,
1,
1,
1,
1,
0,
2,
0,
0,
1,
0,
0,
0,
0,
0,
0,
0,
0,
0,
1,
1,
0,
0,
0,
0,
0,
0,
0,
0,
0,
0,
0,
0,
0,
0,
0,
0,
0,
0,
0,
0,
0,
0,
0,
0,
0,
0,
0,
0,
0,
0,
0,
0,
0,
0,
0,
0,
0,
0,
0,
0,
0,
0,
0,
0,
0,
0,
0,
0,
0,
0,
0,
0,
0,
0,
0,
0,
0,
0,
0,
0,
0,
0,
0,
0,
0,
0,
0,
0,
0,
0,
0,
0,
0,
0,
0,
0,
0,
0,
0,
0,
0,
0,
0,
0,
0,
0,
0,
0,
0,
0,
0,
0,
#ENDOFDATA   :

File: C std.msa
#FORMAT      : EMSA/MAS Spectral Data File
#VERSION     : 1.0
#TITLE       : C standard for 'N132962' detector
#NPOINTS     : 4096
#NCOLUMNS    : 1
#XUNITS      : eV
#YUNITS      : counts
#DATATYPE    : Y
#SIGNALTYPE  : EDS
#XLABEL      : Energy (eV)
#YLABEL      : Counts
#XPERCHAN -eV: 9.99778
#OFFSET   -eV: 1.69135
#CHOFFSET    : 0
#DATE        : 29-Sep-2025
#TIME        : 00:02:00
#OWNER       : Unknown
#ELEVANGLE   : 35
#BEAMKV   -kV: 15
#LIVETIME  -s: 1202.34
#REALTIME  -s: 1269.58
#PROBECUR -nA: 1.21151
##WORKING -mm: 15
##D2STDCMP   : C,(C:100.0000)
##SIMILAR    : 1.1
#SPECTRUM    :
111,
7508,
2798551,
4352,
17813,
8744,
10990,
12862,
13999,
13905,
13633,
13151,
12366,
11535,
9253,
8648,
8056,
7443,
6736,
6503,
5970,
5499,
5059,
4961,
4552,
4476,
4047,
3817,
3420,
3460,
3225,
3104,
2894,
2795,
2715,
2468,
2433,
2308,
2167,
2098,
1987,
1857,
1882,
1718,
1550,
1609,
1659,
1377,
1365,
1327,
1264,
1183,
1136,
1033,
1022,
982,
959,
861,
855,
782,
784,
681,
732,
620,
662,
603,
572,
564,
499,
443,
431,
406,
390,
396,
383,
354,
335,
299,
279,
267,
237,
260,
235,
228,
169,
156,
159,
165,
133,
123,
120,
120,
96,
98,
70,
70,
74,
58,
50,
39,
27,
27,
25,
15,
12,
8,
5,
1,
0,
0,
0,
0,
0,
0,
0,
0,
0,
0,
0,
0,
0,
0,
0,
2,
0,
0,
0,
0,
0,
0,
0,
0,
0,
0,
0,
0,
0,
0,
0,
0,
0,
0,
0,
0,
0,
0,
0,
0,
1,
0,
0,
0,
1,
0,
0,
0,
0,
0,
0,
0,
0,
0,
0,
0,
0,
0,
0,
0,
0,
0,
0,
0,
0,
0,
0,
0,
0,
0,
0,
0,
0,
0,
0,
0,
0,
0,
0,
0,
0,
0,
0,
0,
0,
0,
0,
0,
0,
0,
0,
0,
0,
0,
0,
0,
0,
0,
0,
0,
0,
0,
0,
0,
0,
0,
0,
0,
0,
0,
0,
0,
0,
0,
0,
0,
0,
0,
0,
0,
0,
0,
0,
0,
0,
0,
0,
0,
0,
0,
0,
0,
0,
0,
0,
0,
0,
0,
0,
0,
0,
0,
0,
0,
0,
0,
0,
0,
0,
0,
0,
0,
0,
0,
0,
0,
0,
0,
0,
0,
0,
0,
0,
0,
0,
0,
0,
0,
0,
0,
0,
0,
0,
0,
0,
0,
0,
0,
0,
0,
0,
0,
0,
0,
0,
0,
#ENDOFDATA   :

File: CaF2 std.msa
#FORMAT      : EMSA/MAS Spectral Data File
#VERSION     : 1.0
#TITLE       : CaF2 standard for 'N132962' detector
#NPOINTS     : 4096
#NCOLUMNS    : 1
#XUNITS      : eV
#YUNITS      : counts
#DATATYPE    : Y
#SIGNALTYPE  : EDS
#XLABEL      : Energy (eV)
#YLABEL      : Counts
#XPERCHAN -eV: 9.99778
#OFFSET   -eV: 1.69135
#CHOFFSET    : 0
#DATE        : 28-Sep-2025
#TIME        : 17:36:00
#OWNER       : Unknown
#ELEVANGLE   : 35
#BEAMKV   -kV: 15
#LIVETIME  -s: 2160.341
#REALTIME  -s: 2286.88
#PROBECUR -nA: 1.21461
##WORKING -mm: 15
##D2STDCMP   : CaF2,(F:48.6672),(Ca:51.3328)
##SIMILAR    : 1.5
#SPECTRUM    :
347,
4061,
315740,
24975,
51678,
1003298,
26087,
31449,
36233,
41041,
43038,
42935,
43665,
43379,
52866,
34763,
34652,
31520,
30096,
28754,
27062,
26167,
25309,
24666,
22609,
31821,
878807,
297258,
55246,
142916,
14181,
16505,
13426,
12967,
12321,
12068,
11672,
11313,
11009,
10690,
10394,
9857,
9411,
9042,
8925,
8734,
8441,
7684,
7463,
7182,
7134,
6772,
6835,
7317,
6236,
6058,
5622,
5356,
5089,
4972,
4710,
4465,
4324,
4090,
4046,
3798,
3733,
3451,
3339,
3255,
3113,
2966,
2701,
2592,
2535,
2420,
2231,
2172,
2025,
1901,
1807,
1665,
1616,
1398,
1369,
1284,
1247,
1117,
1057,
974,
869,
804,
693,
717,
566,
548,
477,
450,
361,
327,
308,
250,
189,
157,
115,
94,
49,
17,
9,
2,
9,
6,
3,
2,
4,
3,
3,
7,
4,
1,
1,
4,
7,
3,
0,
5,
2,
0,
3,
0,
0,
3,
1,
1,
0,
3,
0,
0,
0,
0,
0,
1,
1,
0,
0,
0,
1,
0,
0,
0,
0,
0,
0,
1,
0,
0,
0,
0,
0,
1,
0,
0,
0,
0,
0,
0,
0,
1,
0,
0,
0,
0,
0,
0,
0,
0,
0,
0,
0,
0,
0,
0,
0,
0,
1,
0,
0,
0,
0,
0,
0,
0,
0,
0,
0,
0,
0,
0,
0,
0,
0,
0,
0,
0,
0,
0,
0,
0,
0,
0,
0,
0,
0,
0,
0,
0,
0,
0,
0,
0,
0,
0,
0,
0,
0,
0,
0,
0,
0,
0,
0,
0,
0,
0,
0,
0,
0,
0,
0,
0,
0,
0,
0,
0,
0,
0,
0,
0,
0,
0,
0,
0,
0,
0,
0,
0,
0,
0,
0,
0,
0,
0,
0,
0,
0,
0,
0,
0,
0,
0,
0,
0,
0,
0,
0,
0,
0,
0,
0,
0,
0,
0,
0,
0,
0,
0,
0,
0,
0,
0,
0,
0,
0,
0,
#ENDOFDATA   :

File: Cd std.msa
#FORMAT      : EMSA/MAS Spectral Data File
#VERSION     : 1.0
#TITLE       : Cd standard for 'N132962' detector
#NPOINTS     : 4096
#NCOLUMNS    : 1
#XUNITS      : eV
#YUNITS      : counts
#DATATYPE    : Y
#SIGNALTYPE  : EDS
#XLABEL      : Energy (eV)
#YLABEL      : Counts
#XPERCHAN -eV: 9.99778
#OFFSET   -eV: 1.69135
#CHOFFSET    : 0
#DATE        : 26-Sep-2025
#TIME        : 14:43:00
#OWNER       : Unknown
#ELEVANGLE   : 35
#BEAMKV   -kV: 15
#LIVETIME  -s: 1921.16
#REALTIME  -s: 2100.06
#PROBECUR -nA: 1.22014
##WORKING -mm: 15
##D2STDCMP   : Cd,(Cd:100.0000)
##SIMILAR    : 1.4
#SPECTRUM    :
191,
17214,
303230,
87534,
53476,
47706,
50193,
54790,
60435,
67687,
95022,
82674,
81541,
81663,
70109,
68371,
67043,
65482,
64970,
79285,
112796,
85079,
805375,
390991,
585783,
199986,
70461,
59217,
49739,
33130,
30317,
30186,
30304,
29763,
29492,
28952,
28501,
27814,
27530,
27023,
26268,
25598,
25188,
24171,
24125,
25109,
25377,
22353,
21736,
20603,
20374,
19581,
18730,
18502,
17875,
17075,
16605,
16067,
15675,
15180,
14547,
14152,
13627,
13164,
12916,
12248,
11908,
11308,
11096,
10633,
10284,
9922,
9585,
9019,
8681,
8268,
8077,
7571,
7202,
6994,
6589,
6366,
5959,
5704,
5251,
4968,
4706,
4335,
4190,
4031,
3600,
3345,
3147,
2847,
2688,
2488,
2264,
2012,
1757,
1580,
1312,
1155,
991,
815,
590,
435,
270,
91,
37,
42,
37,
48,
26,
26,
22,
27,
26,
17,
15,
20,
20,
23,
19,
20,
9,
30,
19,
11,
18,
10,
9,
8,
8,
10,
9,
8,
7,
7,
6,
1,
2,
8,
7,
0,
1,
5,
2,
2,
1,
5,
2,
3,
3,
3,
5,
0,
1,
3,
0,
1,
2,
1,
0,
0,
0,
1,
0,
2,
0,
0,
0,
0,
4,
0,
0,
0,
0,
1,
1,
0,
0,
0,
1,
0,
0,
0,
1,
0,
1,
0,
0,
0,
0,
0,
0,
0,
0,
0,
0,
0,
0,
0,
0,
0,
0,
0,
0,
0,
0,
0,
0,
0,
0,
0,
0,
0,
0,
0,
0,
0,
0,
0,
0,
0,
0,
0,
0,
0,
0,
0,
0,
0,
0,
0,
0,
0,
0,
0,
0,
0,
0,
0,
0,
0,
0,
0,
0,
0,
0,
0,
0,
0,
0,
0,
0,
0,
0,
0,
0,
0,
0,
0,
0,
0,
0,
0,
0,
0,
0,
0,
0,
0,
0,
0,
0,
0,
0,
0,
0,
0,
0,
0,
0,
0,
0,
0,
0,
0,
0,
0,
0,
0,
0,
0,
#ENDOFDATA   :

File: CeAl2 std.msa
#FORMAT      : EMSA/MAS Spectral Data File
#VERSION     : 1.0
#TITLE       : CeAl2 standard for 'N132962' detector
#NPOINTS     : 4096
#NCOLUMNS    : 1
#XUNITS      : eV
#YUNITS      : counts
#DATATYPE    : Y
#SIGNALTYPE  : EDS
#XLABEL      : Energy (eV)
#YLABEL      : Counts
#XPERCHAN -eV: 9.99778
#OFFSET   -eV: 1.69135
#CHOFFSET    : 0
#DATE        : 27-Sep-2025
#TIME        : 19:56:00
#OWNER       : Unknown
#ELEVANGLE   : 35
#BEAMKV   -kV: 15
#LIVETIME  -s: 1679.22
#REALTIME  -s: 1808.8
#PROBECUR -nA: 1.21162
##WORKING -mm: 15
##D2STDCMP   : CeAl2,(Al:27.8047),(Ce:72.1953)
##SIMILAR    : 1.1
#SPECTRUM    :
168,
3704,
92535,
60286,
88502,
233404,
175716,
54796,
66589,
48549,
115656,
383538,
40998,
42942,
38733,
39971,
40504,
40616,
39674,
39119,
38447,
38516,
39863,
36207,
34948,
34613,
33015,
31987,
31273,
30287,
33225,
39398,
28056,
29325,
175034,
245563,
26415,
84332,
160780,
36046,
92985,
26995,
19897,
42065,
22589,
26824,
19130,
16480,
14733,
14533,
14098,
13836,
13322,
13240,
12565,
12140,
11890,
11575,
11287,
10963,
10384,
10075,
9943,
9583,
9158,
8820,
8501,
8294,
8064,
7925,
7447,
7008,
7040,
6694,
6385,
6080,
5676,
5524,
5473,
4908,
4703,
4548,
4364,
4077,
3855,
3634,
3266,
3245,
2981,
2705,
2593,
2417,
2281,
2002,
1906,
1753,
1602,
1356,
1190,
1096,
949,
794,
683,
528,
441,
250,
192,
67,
23,
17,
21,
12,
20,
28,
11,
9,
18,
9,
16,
11,
9,
18,
10,
9,
19,
9,
11,
6,
8,
9,
6,
9,
10,
7,
2,
2,
3,
8,
3,
6,
2,
4,
5,
4,
2,
1,
1,
0,
1,
1,
0,
2,
1,
0,
1,
1,
2,
0,
1,
2,
0,
1,
0,
1,
1,
0,
1,
0,
1,
1,
0,
0,
0,
0,
0,
0,
1,
0,
0,
0,
1,
0,
0,
0,
0,
0,
0,
0,
0,
0,
0,
0,
0,
0,
0,
0,
0,
1,
0,
0,
0,
0,
0,
0,
0,
0,
0,
0,
0,
0,
0,
0,
0,
0,
0,
0,
0,
0,
0,
0,
0,
0,
0,
0,
0,
0,
0,
0,
0,
0,
0,
0,
0,
0,
0,
0,
0,
0,
0,
0,
0,
0,
0,
0,
0,
0,
0,
0,
0,
0,
0,
0,
0,
0,
0,
0,
0,
0,
0,
0,
0,
0,
0,
0,
0,
0,
0,
0,
0,
0,
0,
0,
0,
0,
0,
0,
0,
0,
0,
0,
0,
0,
0,
0,
0,
0,
0,
0,
0,
0,
0,
0,
0,
0,
#ENDOFDATA   :