Folder: spex_quant/N132962/Standards/15 keV (part 4)

File: InAs std.msa
#FORMAT      : EMSA/MAS Spectral Data File
#VERSION     : 1.0
#TITLE       : InAs standard for 'N132962' detector
#NPOINTS     : 4096
#NCOLUMNS    : 1
#XUNITS      : eV
#YUNITS      : counts
#DATATYPE    : Y
#SIGNALTYPE  : EDS
#XLABEL      : Energy (eV)
#YLABEL      : Counts
#XPERCHAN -eV: 9.99778
#OFFSET   -eV: 1.69135
#CHOFFSET    : 0
#DATE        : 27-Sep-2025
#TIME        : 19:35:00
#OWNER       : Unknown
#ELEVANGLE   : 35
#BEAMKV   -kV: 15
#LIVETIME  -s: 1919.11
#REALTIME  -s: 2078.22
#PROBECUR -nA: 1.21093
##WORKING -mm: 15
##D2STDCMP   : InAs,(As:39.4865),(In:60.5135)
##SIMILAR    : 1.3
#SPECTRUM    :
202,
4521,
112758,
81705,
51744,
57651,
56830,
69144,
131922,
1039764,
102058,
66196,
58264,
60477,
53553,
53026,
53425,
53255,
52828,
51562,
51967,
73625,
58567,
320817,
297854,
411042,
99705,
83040,
69549,
33917,
40128,
29242,
29320,
29376,
28358,
27399,
26828,
25910,
25256,
24724,
23852,
23540,
22814,
22179,
21469,
20988,
21018,
20014,
19236,
18557,
18185,
17502,
16877,
16406,
15804,
15381,
14851,
14507,
13837,
13465,
12936,
12502,
12105,
11616,
11503,
10803,
10351,
10072,
9716,
9349,
9056,
8656,
8351,
8220,
10666,
39596,
16471,
6893,
6254,
6033,
5732,
5585,
5119,
7072,
8481,
4642,
3878,
3746,
3547,
3305,
3023,
2874,
2587,
2463,
2250,
2059,
1828,
1589,
1522,
1341,
1194,
1054,
843,
650,
480,
354,
244,
79,
33,
27,
29,
29,
24,
26,
17,
21,
15,
14,
8,
13,
16,
21,
21,
12,
9,
9,
9,
16,
5,
13,
7,
10,
9,
4,
4,
9,
3,
8,
9,
4,
5,
4,
4,
4,
7,
2,
2,
4,
1,
8,
6,
2,
1,
1,
3,
0,
3,
0,
1,
1,
3,
2,
1,
1,
1,
2,
3,
0,
0,
2,
2,
2,
1,
0,
0,
1,
2,
2,
0,
0,
0,
0,
0,
0,
0,
0,
0,
2,
0,
0,
0,
0,
0,
0,
0,
0,
0,
0,
0,
0,
0,
0,
0,
0,
0,
0,
0,
0,
0,
0,
0,
0,
0,
0,
0,
0,
0,
0,
0,
0,
0,
0,
0,
0,
0,
0,
0,
0,
0,
0,
0,
0,
0,
0,
0,
0,
0,
0,
0,
0,
0,
0,
0,
0,
0,
0,
0,
0,
0,
0,
0,
0,
0,
0,
0,
0,
0,
0,
0,
0,
0,
0,
0,
0,
0,
0,
0,
0,
0,
0,
0,
0,
0,
0,
0,
0,
0,
0,
0,
0,
0,
0,
0,
0,
0,
0,
0,
0,
0,
0,
0,
0,
0,
0,
#ENDOFDATA   :

File: InP std.msa
#FORMAT      : EMSA/MAS Spectral Data File
#VERSION     : 1.0
#TITLE       : InP standard for 'N132962' detector
#NPOINTS     : 4096
#NCOLUMNS    : 1
#XUNITS      : eV
#YUNITS      : counts
#DATATYPE    : Y
#SIGNALTYPE  : EDS
#XLABEL      : Energy (eV)
#YLABEL      : Counts
#XPERCHAN -eV: 9.99778
#OFFSET   -eV: 1.69135
#CHOFFSET    : 0
#DATE        : 26-Sep-2025
#TIME        : 14:53:00
#OWNER       : Unknown
#ELEVANGLE   : 35
#BEAMKV   -kV: 15
#LIVETIME  -s: 2159.67
#REALTIME  -s: 2345.66
#PROBECUR -nA: 1.21997
##WORKING -mm: 15
##D2STDCMP   : InP,(P:21.2452),(In:78.7548)
##SIMILAR    : 1.0
#SPECTRUM    :
207,
6441,
127156,
110492,
49854,
60441,
54099,
56510,
64967,
72117,
76787,
97019,
86216,
90495,
622545,
206027,
61991,
57799,
56432,
55664,
57775,
89821,
67722,
448974,
420012,
578701,
129110,
106527,
84850,
36795,
44489,
29606,
29232,
28911,
28825,
28325,
27528,
27251,
28399,
26791,
25377,
24501,
23806,
23161,
22763,
22662,
23221,
21605,
20644,
20104,
19421,
18559,
17638,
17759,
16771,
16157,
15624,
15311,
14669,
14155,
13679,
13331,
12805,
12307,
11764,
11425,
10909,
10741,
10279,
9929,
9417,
9187,
8872,
8495,
8105,
7664,
7247,
6937,
6729,
6371,
6097,
5771,
5481,
5060,
4756,
4360,
4406,
4028,
3774,
3520,
3293,
3031,
2799,
2709,
2408,
2157,
1933,
1727,
1587,
1342,
1212,
1038,
847,
700,
560,
411,
226,
76,
34,
39,
34,
26,
25,
20,
20,
24,
24,
7,
16,
10,
12,
18,
12,
17,
15,
8,
10,
7,
7,
8,
5,
13,
4,
5,
10,
3,
3,
4,
6,
6,
3,
4,
3,
0,
2,
3,
1,
4,
2,
0,
0,
3,
2,
0,
2,
0,
4,
2,
3,
0,
1,
0,
0,
2,
0,
2,
1,
0,
1,
0,
0,
0,
1,
1,
0,
0,
0,
0,
0,
0,
0,
1,
0,
2,
0,
1,
0,
0,
0,
0,
1,
0,
0,
0,
0,
0,
0,
0,
0,
0,
0,
0,
0,
0,
0,
0,
0,
0,
0,
0,
0,
0,
0,
0,
0,
0,
0,
0,
0,
0,
0,
0,
0,
0,
0,
0,
0,
0,
0,
0,
0,
0,
0,
0,
0,
0,
0,
0,
0,
0,
0,
0,
0,
0,
0,
0,
0,
0,
0,
0,
0,
0,
0,
0,
0,
0,
0,
0,
0,
0,
0,
0,
0,
0,
0,
0,
0,
0,
0,
0,
0,
0,
0,
0,
0,
0,
0,
0,
0,
0,
0,
0,
0,
0,
0,
0,
0,
0,
0,
0,
0,
0,
0,
0,
#ENDOFDATA   :

File: Ir std.msa
#FORMAT      : EMSA/MAS Spectral Data File
#VERSION     : 1.0
#TITLE       : Ir standard for 'N132962' detector
#NPOINTS     : 4096
#NCOLUMNS    : 1
#XUNITS      : eV
#YUNITS      : counts
#DATATYPE    : Y
#SIGNALTYPE  : EDS
#XLABEL      : Energy (eV)
#YLABEL      : Counts
#XPERCHAN -eV: 9.99778
#OFFSET   -eV: 1.69135
#CHOFFSET    : 0
#DATE        : 27-Sep-2025
#TIME        : 20:49:00
#OWNER       : Unknown
#ELEVANGLE   : 35
#BEAMKV   -kV: 15
#LIVETIME  -s: 2159.71
#REALTIME  -s: 2404.54
#PROBECUR -nA: 1.21177
##WORKING -mm: 15
##D2STDCMP   : Ir,(Ir:100.0000)
##SIMILAR    : 1.0
#SPECTRUM    :
219,
10806,
174977,
63936,
75373,
88699,
106410,
122650,
120780,
124762,
129347,
324483,
137483,
182007,
2325400,
694097,
131896,
59778,
67207,
66191,
56857,
56667,
56952,
55423,
55226,
55784,
55577,
55523,
58244,
58608,
53729,
51964,
51277,
50827,
50047,
48985,
47782,
47038,
46068,
44707,
44091,
42766,
41902,
40575,
39604,
39363,
38920,
36800,
35444,
34901,
33963,
32723,
31633,
31525,
30559,
29062,
28725,
31232,
29625,
26096,
25202,
24557,
23986,
23057,
25378,
89781,
77683,
21343,
19598,
19165,
18081,
17265,
16971,
16055,
15752,
17481,
26867,
27401,
32162,
15343,
13120,
11219,
10262,
9762,
9389,
8846,
8589,
8113,
7817,
9690,
7926,
6707,
6317,
5518,
4983,
4695,
4167,
3803,
3420,
3066,
2737,
2378,
2015,
1751,
1382,
980,
635,
247,
74,
67,
80,
88,
79,
67,
47,
68,
40,
34,
43,
44,
28,
57,
40,
56,
38,
41,
36,
36,
35,
33,
27,
41,
37,
23,
31,
27,
16,
13,
21,
11,
28,
24,
19,
13,
10,
13,
12,
11,
10,
6,
13,
14,
13,
12,
5,
9,
6,
4,
6,
10,
2,
3,
3,
4,
6,
4,
2,
3,
2,
3,
1,
3,
4,
1,
2,
3,
1,
2,
2,
1,
2,
0,
0,
1,
0,
0,
2,
0,
0,
0,
1,
0,
0,
0,
0,
0,
0,
1,
0,
1,
0,
0,
0,
0,
0,
0,
0,
0,
0,
1,
0,
0,
0,
0,
0,
0,
0,
0,
0,
0,
0,
0,
0,
0,
0,
0,
0,
0,
0,
0,
0,
0,
0,
0,
0,
0,
0,
0,
0,
0,
0,
0,
0,
0,
0,
0,
0,
0,
0,
0,
0,
0,
0,
0,
0,
0,
0,
0,
0,
0,
0,
0,
0,
0,
0,
0,
0,
0,
0,
0,
0,
0,
0,
0,
0,
0,
0,
0,
0,
0,
0,
0,
0,
0,
0,
0,
0,
0,
0,
0,
0,
0,
0,
0,
#ENDOFDATA   :

File: KBr std.msa
#FORMAT      : EMSA/MAS Spectral Data File
#VERSION     : 1.0
#TITLE       : KBr standard for 'N132962' detector
#NPOINTS     : 4096
#NCOLUMNS    : 1
#XUNITS      : eV
#YUNITS      : counts
#DATATYPE    : Y
#SIGNALTYPE  : EDS
#XLABEL      : Energy (eV)
#YLABEL      : Counts
#XPERCHAN -eV: 9.99778
#OFFSET   -eV: 1.69135
#CHOFFSET    : 0
#DATE        : 26-Sep-2025
#TIME        : 23:40:00
#OWNER       : Unknown
#ELEVANGLE   : 35
#BEAMKV   -kV: 15
#LIVETIME  -s: 1681.93
#REALTIME  -s: 1835.82
#PROBECUR -nA: 1.21571
##WORKING -mm: 15
##D2STDCMP   : KBr,(K:32.8551),(Br:67.1449)
##SIMILAR    : 2.1
#SPECTRUM    :
183,
2745,
72838,
23699,
40399,
54838,
62308,
67295,
72598,
141576,
273431,
1402836,
42238,
38624,
31681,
32701,
33355,
33492,
33091,
33642,
33409,
36178,
33383,
132544,
555747,
45841,
82725,
22897,
22373,
21682,
21441,
20858,
20697,
19576,
21295,
19573,
18441,
17406,
16793,
16668,
15440,
15139,
14875,
14118,
13742,
13730,
14252,
12582,
12199,
11661,
11304,
10519,
10333,
10170,
9726,
9244,
8930,
8551,
8222,
8107,
7577,
7369,
7135,
6958,
6441,
6274,
6011,
5757,
5632,
5448,
5149,
4935,
4640,
4492,
4277,
4109,
3784,
3710,
3471,
3232,
3101,
2918,
2828,
2588,
3776,
8552,
3247,
1954,
1779,
1712,
1497,
1467,
1345,
1183,
1395,
1741,
1000,
735,
629,
538,
458,
358,
264,
172,
90,
43,
13,
15,
23,
13,
9,
13,
8,
5,
6,
6,
6,
2,
4,
7,
5,
2,
4,
3,
1,
7,
5,
2,
5,
3,
0,
4,
2,
3,
0,
2,
1,
2,
1,
0,
0,
2,
1,
0,
2,
1,
2,
0,
1,
1,
2,
1,
3,
1,
1,
2,
1,
0,
0,
1,
0,
2,
0,
0,
1,
0,
1,
0,
0,
0,
0,
0,
0,
0,
0,
0,
0,
0,
0,
0,
1,
0,
0,
0,
0,
0,
0,
1,
0,
0,
0,
0,
0,
0,
0,
0,
0,
0,
0,
0,
0,
0,
0,
0,
0,
0,
0,
0,
0,
0,
0,
0,
0,
0,
0,
0,
0,
0,
0,
0,
0,
0,
0,
0,
0,
0,
0,
0,
0,
0,
0,
0,
0,
0,
0,
0,
0,
0,
0,
0,
0,
0,
0,
0,
0,
0,
0,
0,
0,
0,
0,
0,
0,
0,
0,
0,
0,
0,
0,
0,
0,
0,
0,
0,
0,
0,
0,
0,
0,
0,
0,
0,
0,
0,
0,
0,
0,
0,
0,
0,
0,
0,
0,
0,
0,
0,
0,
0,
0,
0,
0,
0,
0,
0,
#ENDOFDATA   :

File: KCl std.msa
#FORMAT      : EMSA/MAS Spectral Data File
#VERSION     : 1.0
#TITLE       : KCl standard for 'N132962' detector
#NPOINTS     : 4096
#NCOLUMNS    : 1
#XUNITS      : eV
#YUNITS      : counts
#DATATYPE    : Y
#SIGNALTYPE  : EDS
#XLABEL      : Energy (eV)
#YLABEL      : Counts
#XPERCHAN -eV: 9.99778
#OFFSET   -eV: 1.69135
#CHOFFSET    : 0
#DATE        : 30-Sep-2025
#TIME        : 15:34:00
#OWNER       : Unknown
#ELEVANGLE   : 35
#BEAMKV   -kV: 15
#LIVETIME  -s: 1441.14
#REALTIME  -s: 1555.13
#PROBECUR -nA: 1.21543
##WORKING -mm: 15
##D2STDCMP   : KCl,(Cl:47.5531),(K:52.4469)
##SIMILAR    : 7.5
#SPECTRUM    :
136,
19241,
97960,
14000,
33047,
29962,
49534,
38784,
41451,
42205,
43093,
54015,
42947,
40678,
32137,
31052,
30976,
30411,
136033,
1047670,
145466,
21484,
19017,
141731,
658387,
38499,
84850,
12157,
12836,
11494,
11608,
11278,
10871,
10644,
10507,
10258,
9663,
10302,
9965,
8944,
8477,
8074,
9189,
8646,
7496,
7210,
6944,
6934,
6474,
6023,
5854,
5510,
5206,
5081,
4861,
4693,
4665,
4492,
4230,
3990,
3812,
3682,
3652,
3347,
3244,
3123,
3003,
2850,
2784,
2665,
2496,
2406,
2217,
2161,
2049,
1911,
1798,
1739,
1596,
1446,
1493,
1300,
1249,
1141,
1142,
1037,
977,
883,
804,
744,
657,
652,
583,
496,
471,
430,
340,
308,
240,
222,
182,
127,
114,
65,
32,
15,
11,
7,
6,
7,
0,
10,
1,
3,
5,
5,
0,
2,
2,
1,
0,
1,
3,
1,
0,
4,
2,
0,
0,
0,
0,
0,
1,
0,
0,
1,
0,
0,
1,
0,
1,
0,
0,
0,
1,
0,
0,
1,
0,
0,
0,
0,
0,
0,
0,
0,
0,
0,
0,
0,
0,
0,
0,
0,
0,
0,
0,
0,
0,
0,
0,
0,
0,
0,
0,
0,
0,
0,
0,
1,
0,
0,
0,
0,
0,
0,
0,
0,
0,
0,
0,
0,
0,
0,
0,
0,
0,
0,
0,
0,
0,
0,
0,
0,
0,
0,
0,
0,
0,
0,
0,
0,
0,
0,
0,
0,
0,
0,
0,
0,
0,
0,
0,
0,
0,
0,
0,
0,
0,
0,
0,
0,
0,
0,
0,
0,
0,
0,
0,
0,
0,
0,
0,
0,
0,
0,
0,
0,
0,
0,
0,
0,
0,
0,
0,
0,
0,
0,
0,
0,
0,
0,
0,
0,
0,
0,
0,
0,
0,
0,
0,
0,
0,
0,
0,
0,
0,
0,
0,
0,
0,
0,
0,
0,
0,
0,
0,
0,
0,
0,
0,
0,
0,
0,
#ENDOFDATA   :

File: La std.msa
#FORMAT      : EMSA/MAS Spectral Data File
#VERSION     : 1.0
#TITLE       : La standard for 'N132962' detector
#NPOINTS     : 4096
#NCOLUMNS    : 1
#XUNITS      : eV
#YUNITS      : counts
#DATATYPE    : Y
#SIGNALTYPE  : EDS
#XLABEL      : Energy (eV)
#YLABEL      : Counts
#XPERCHAN -eV: 9.99778
#OFFSET   -eV: 1.69135
#CHOFFSET    : 0
#DATE        : 25-Sep-2025
#TIME        : 17:02:00
#OWNER       : Unknown
#ELEVANGLE   : 35
#BEAMKV   -kV: 15
#LIVETIME  -s: 1200.02
#REALTIME  -s: 1270.54
#PROBECUR -nA: 1.20429
##WORKING -mm: 15
##D2STDCMP   : La,(La:100.0000)
##SIMILAR    : 1.6
#SPECTRUM    :
123,
112446,
39733,
32448,
68318,
67287,
112975,
34989,
36904,
25922,
27493,
29021,
30626,
31226,
27489,
27514,
27108,
27062,
26464,
25948,
25156,
25930,
23469,
22870,
22396,
21320,
20983,
19686,
19320,
24534,
22008,
17865,
24052,
281061,
49539,
20384,
158165,
41783,
40010,
33343,
12607,
24504,
16263,
16550,
12290,
10794,
9771,
9001,
8788,
8727,
8531,
8251,
8000,
7915,
7602,
7494,
6953,
6760,
6510,
6480,
6339,
6014,
5832,
5761,
5394,
5157,
5143,
4977,
4717,
4528,
4371,
4310,
4042,
3823,
3700,
3583,
3396,
3276,
3029,
2938,
2778,
2666,
2477,
2337,
2185,
2016,
2018,
1782,
1713,
1663,
1459,
1387,
1204,
1183,
1115,
966,
919,
761,
699,
601,
507,
471,
385,
310,
216,
160,
90,
27,
9,
7,
8,
6,
11,
10,
9,
5,
5,
9,
4,
7,
6,
8,
11,
9,
11,
3,
7,
5,
9,
9,
5,
8,
2,
4,
3,
1,
1,
6,
0,
2,
2,
0,
4,
0,
1,
1,
1,
0,
0,
0,
0,
2,
0,
0,
0,
0,
0,
1,
0,
1,
0,
0,
0,
0,
0,
0,
0,
0,
0,
0,
1,
1,
1,
0,
0,
0,
0,
0,
0,
0,
0,
0,
0,
1,
0,
0,
0,
0,
0,
0,
1,
0,
0,
0,
0,
0,
0,
0,
0,
0,
0,
0,
0,
0,
0,
0,
0,
0,
0,
0,
0,
0,
0,
0,
0,
0,
0,
0,
0,
0,
0,
0,
0,
0,
0,
0,
0,
0,
0,
0,
0,
0,
0,
0,
0,
0,
0,
0,
0,
0,
0,
0,
0,
0,
0,
0,
0,
0,
0,
0,
0,
0,
0,
0,
0,
0,
0,
0,
0,
0,
0,
0,
0,
0,
0,
0,
0,
0,
0,
0,
0,
0,
0,
0,
0,
0,
0,
0,
0,
0,
0,
0,
0,
0,
0,
0,
0,
0,
0,
0,
0,
0,
0,
0,
#ENDOFDATA   :

File: LaB6 std.msa
#FORMAT      : EMSA/MAS Spectral Data File
#VERSION     : 1.0
#TITLE       : LaB6 standard for 'N132962' detector
#NPOINTS     : 4096
#NCOLUMNS    : 1
#XUNITS      : eV
#YUNITS      : counts
#DATATYPE    : Y
#SIGNALTYPE  : EDS
#XLABEL      : Energy (eV)
#YLABEL      : Counts
#XPERCHAN -eV: 9.99778
#OFFSET   -eV: 1.69135
#CHOFFSET    : 0
#DATE        : 27-Sep-2025
#TIME        : 19:46:00
#OWNER       : Unknown
#ELEVANGLE   : 35
#BEAMKV   -kV: 15
#LIVETIME  -s: 1677.89
#REALTIME  -s: 1776.41
#PROBECUR -nA: 1.21113
##WORKING -mm: 15
##D2STDCMP   : LaB6,(B:31.8307),(La:68.1693)
##SIMILAR    : 1.6
#SPECTRUM    :
158,
154143,
74520,
42837,
95895,
91604,
156931,
53979,
52066,
36563,
38555,
40264,
42638,
43341,
38299,
38484,
38158,
37599,
36611,
35895,
35338,
35853,
32461,
32024,
31097,
29518,
29089,
27375,
27028,
34196,
30274,
24974,
31901,
393220,
67634,
28440,
220697,
58263,
56779,
46254,
17716,
34903,
22619,
23445,
17119,
15283,
14482,
12321,
12392,
12023,
11921,
11407,
11209,
10869,
10419,
10186,
9843,
9739,
9491,
9154,
8655,
8402,
8094,
7928,
7465,
7176,
6990,
6934,
6657,
6456,
6103,
5954,
5668,
5414,
5119,
5178,
4695,
4435,
4279,
4039,
3954,
3670,
3441,
3274,
3181,
2828,
2653,
2491,
2361,
2230,
2089,
1870,
1694,
1613,
1480,
1316,
1121,
1029,
967,
862,
762,
626,
519,
481,
314,
210,
107,
36,
20,
16,
20,
18,
14,
19,
14,
10,
13,
11,
8,
6,
9,
9,
11,
17,
16,
6,
8,
9,
4,
2,
7,
3,
4,
2,
6,
2,
4,
5,
3,
1,
2,
2,
4,
5,
2,
1,
0,
2,
0,
4,
1,
0,
0,
4,
3,
0,
1,
0,
0,
2,
1,
0,
0,
0,
0,
0,
0,
0,
0,
2,
0,
0,
0,
1,
0,
0,
0,
1,
0,
0,
0,
0,
0,
0,
0,
0,
0,
1,
0,
0,
0,
1,
0,
0,
0,
0,
0,
0,
1,
0,
0,
0,
0,
0,
0,
0,
0,
0,
0,
0,
0,
0,
0,
0,
0,
0,
0,
0,
0,
0,
0,
0,
0,
0,
0,
0,
0,
0,
0,
0,
0,
0,
0,
0,
0,
0,
0,
0,
0,
0,
0,
0,
0,
0,
0,
0,
0,
0,
0,
0,
0,
0,
0,
0,
0,
0,
0,
0,
0,
0,
0,
0,
0,
0,
0,
0,
0,
0,
0,
0,
0,
0,
0,
0,
0,
0,
0,
0,
0,
0,
0,
0,
0,
0,
0,
0,
0,
0,
0,
0,
0,
0,
0,
0,
#ENDOFDATA   :

File: LaF3 std.msa
#FORMAT      : EMSA/MAS Spectral Data File
#VERSION     : 1.0
#TITLE       : LaF3 standard for 'N132962' detector
#NPOINTS     : 4096
#NCOLUMNS    : 1
#XUNITS      : eV
#YUNITS      : counts
#DATATYPE    : Y
#SIGNALTYPE  : EDS
#XLABEL      : Energy (eV)
#YLABEL      : Counts
#XPERCHAN -eV: 9.99778
#OFFSET   -eV: 1.69135
#CHOFFSET    : 0
#DATE        : 26-Sep-2025
#TIME        : 18:13:00
#OWNER       : Unknown
#ELEVANGLE   : 35
#BEAMKV   -kV: 15
#LIVETIME  -s: 1194.07
#REALTIME  -s: 1293.46
#PROBECUR -nA: 1.21605
##WORKING -mm: 15
##D2STDCMP   : LaF3,(F:29.0939),(La:70.9061)
##SIMILAR    : 16.8
#SPECTRUM    :
123,
5822,
83458,
55410,
117191,
906131,
93731,
32727,
35184,
27389,
28691,
30974,
31819,
34058,
28639,
28891,
28982,
28832,
28040,
28033,
27446,
29312,
25939,
25418,
24877,
23390,
23444,
22106,
21470,
27336,
24209,
19919,
26487,
301592,
52948,
23000,
170969,
45622,
45288,
37368,
14172,
27489,
18324,
18549,
13573,
12473,
12615,
10204,
9943,
9775,
9657,
9327,
9220,
8984,
8593,
8404,
7962,
7836,
7436,
7404,
7131,
6879,
6688,
6404,
6075,
6093,
5873,
5462,
5392,
5445,
5103,
4742,
4661,
4504,
4256,
4133,
3922,
3682,
3562,
3293,
3192,
3016,
2827,
2758,
2593,
2374,
2209,
2109,
1978,
1790,
1689,
1588,
1489,
1390,
1276,
1114,
1000,
904,
911,
728,
633,
514,
438,
342,
277,
200,
108,
53,
21,
19,
15,
13,
8,
5,
10,
5,
11,
2,
9,
7,
6,
11,
9,
13,
11,
5,
4,
10,
6,
5,
7,
5,
3,
4,
7,
2,
3,
6,
1,
3,
2,
3,
2,
3,
1,
1,
0,
0,
0,
1,
1,
0,
0,
0,
2,
0,
1,
0,
0,
0,
0,
1,
0,
0,
0,
0,
0,
0,
1,
0,
0,
0,
0,
0,
0,
0,
0,
0,
1,
0,
0,
0,
1,
0,
0,
0,
0,
0,
0,
0,
0,
0,
0,
0,
0,
0,
0,
0,
0,
0,
0,
0,
0,
0,
0,
0,
0,
0,
0,
0,
0,
0,
0,
0,
0,
0,
0,
0,
0,
0,
0,
0,
0,
0,
0,
0,
0,
0,
0,
0,
0,
0,
0,
0,
0,
0,
0,
0,
0,
0,
0,
0,
0,
0,
0,
0,
0,
0,
0,
0,
0,
0,
0,
0,
0,
0,
0,
0,
0,
0,
0,
0,
0,
0,
0,
0,
0,
0,
0,
0,
0,
0,
0,
0,
0,
0,
0,
0,
0,
0,
0,
0,
0,
0,
0,
0,
0,
0,
0,
0,
0,
0,
0,
0,
#ENDOFDATA   :

File: LaP5O14 std.msa
#FORMAT      : EMSA/MAS Spectral Data File
#VERSION     : 1.0
#TITLE       : LaP5O14 standard for 'N132962' detector
#NPOINTS     : 4096
#NCOLUMNS    : 1
#XUNITS      : eV
#YUNITS      : counts
#DATATYPE    : Y
#SIGNALTYPE  : EDS
#XLABEL      : Energy (eV)
#YLABEL      : Counts
#XPERCHAN -eV: 9.99778
#OFFSET   -eV: 1.69135
#CHOFFSET    : 0
#DATE        : 17-Mar-2025
#TIME        : 17:16:00
#OWNER       : Unknown
#ELEVANGLE   : 35
#BEAMKV   -kV: 15
#LIVETIME  -s: 1917.72
#REALTIME  -s: 2024.55
#PROBECUR -nA: 1.02589
##WORKING -mm: 15
##D2STDCMP   : LaP5O14,(O:43.2606),(P:29.9113),(La:26.8281)
##SIMILAR    : 5.1
#SPECTRUM    :
171,
2641,
124583,
73310,
562245,
32017,
65352,
36105,
38830,
33138,
34692,
36252,
38184,
40558,
529069,
158420,
25164,
22453,
25105,
21573,
20822,
20919,
19413,
18728,
18283,
17262,
17057,
16191,
15714,
18580,
16451,
14100,
15991,
131923,
27767,
14366,
76456,
23822,
22594,
19773,
10410,
15801,
11575,
11359,
9172,
8496,
7899,
7369,
7317,
6960,
6660,
6490,
6261,
6071,
5795,
5527,
5323,
5094,
5122,
4752,
4609,
4517,
4519,
4214,
3889,
3745,
3545,
3534,
3350,
3206,
3139,
2913,
2797,
2671,
2513,
2519,
2249,
2073,
2059,
1953,
1878,
1661,
1652,
1529,
1428,
1334,
1269,
1175,
1097,
1069,
875,
825,
792,
732,
614,
614,
492,
481,
419,
360,
334,
243,
175,
175,
129,
81,
43,
9,
8,
1,
5,
4,
2,
0,
1,
1,
3,
3,
6,
1,
1,
1,
1,
2,
2,
1,
3,
3,
1,
2,
3,
3,
1,
1,
0,
0,
2,
0,
0,
1,
0,
0,
0,
0,
3,
0,
1,
2,
0,
1,
1,
0,
0,
0,
1,
0,
0,
0,
0,
1,
0,
0,
0,
0,
0,
0,
0,
0,
0,
0,
0,
0,
0,
0,
0,
0,
0,
0,
0,
0,
0,
0,
0,
0,
0,
0,
0,
0,
0,
0,
0,
0,
0,
0,
0,
0,
0,
0,
0,
0,
0,
0,
0,
0,
0,
0,
0,
0,
0,
0,
0,
0,
0,
0,
0,
0,
0,
0,
0,
0,
0,
0,
0,
0,
0,
0,
0,
0,
0,
0,
0,
0,
0,
0,
0,
0,
0,
0,
0,
0,
0,
0,
0,
0,
0,
0,
0,
0,
0,
0,
0,
0,
0,
0,
0,
0,
0,
0,
0,
0,
0,
0,
0,
0,
0,
0,
0,
0,
0,
0,
0,
0,
0,
0,
0,
0,
0,
0,
0,
0,
0,
0,
0,
0,
0,
0,
0,
0,
0,
0,
0,
0,
0,
0,
#ENDOFDATA   :

File: Lu std.msa
#FORMAT      : EMSA/MAS Spectral Data File
#VERSION     : 1.0
#TITLE       : Lu standard for 'N132962' detector
#NPOINTS     : 4096
#NCOLUMNS    : 1
#XUNITS      : eV
#YUNITS      : counts
#DATATYPE    : Y
#SIGNALTYPE  : EDS
#XLABEL      : Energy (eV)
#YLABEL      : Counts
#XPERCHAN -eV: 9.99778
#OFFSET   -eV: 1.69135
#CHOFFSET    : 0
#DATE        : 25-Sep-2025
#TIME        : 17:20:00
#OWNER       : Unknown
#ELEVANGLE   : 35
#BEAMKV   -kV: 15
#LIVETIME  -s: 1439.9
#REALTIME  -s: 1580.02
#PROBECUR -nA: 1.20749
##WORKING -mm: 15
##D2STDCMP   : Lu,(Lu:100.0000)
##SIMILAR    : 21.7
#SPECTRUM    :
153,
5065,
82552,
54817,
170484,
127145,
61615,
67312,
72302,
161889,
78362,
980821,
264500,
77345,
37830,
42934,
35857,
35741,
34182,
34826,
34224,
33892,
34078,
35993,
32757,
32224,
32373,
30786,
30532,
30063,
29203,
28659,
29164,
27694,
26221,
25877,
25554,
24389,
23823,
23278,
22382,
21966,
21290,
20516,
19828,
19682,
19519,
18399,
22759,
18491,
16813,
16195,
15789,
16619,
63620,
104025,
16610,
13953,
15457,
12863,
12228,
15994,
49629,
25053,
21731,
24882,
10878,
9482,
8639,
8666,
8330,
8032,
12033,
10492,
7517,
8203,
6512,
6210,
5784,
5240,
5054,
4934,
4483,
4345,
4209,
3943,
3664,
3495,
3237,
3105,
2842,
2600,
2479,
2377,
2046,
1894,
1742,
1578,
1366,
1228,
1064,
955,
761,
642,
477,
376,
189,
65,
37,
42,
35,
29,
27,
32,
19,
25,
29,
24,
15,
23,
20,
19,
20,
15,
13,
17,
22,
16,
7,
14,
8,
9,
12,
9,
11,
9,
8,
9,
5,
7,
8,
6,
4,
8,
6,
3,
5,
3,
5,
1,
4,
1,
3,
5,
3,
2,
2,
3,
1,
1,
0,
1,
1,
0,
0,
1,
0,
0,
0,
1,
1,
1,
0,
0,
1,
0,
1,
0,
0,
0,
0,
0,
0,
0,
0,
1,
0,
0,
0,
0,
0,
0,
0,
0,
0,
0,
0,
0,
0,
1,
0,
0,
0,
0,
0,
0,
0,
0,
0,
0,
0,
0,
0,
0,
0,
0,
0,
0,
0,
0,
0,
0,
0,
0,
0,
0,
0,
0,
0,
0,
0,
0,
0,
0,
0,
0,
0,
0,
0,
0,
0,
0,
0,
0,
0,
0,
0,
0,
0,
0,
0,
0,
0,
0,
0,
0,
0,
0,
0,
0,
0,
0,
0,
0,
0,
0,
0,
0,
0,
0,
0,
0,
0,
0,
0,
0,
0,
0,
0,
0,
0,
0,
0,
0,
0,
0,
0,
0,
0,
0,
0,
0,
0,
0,
#ENDOFDATA   :

File: LuF3 std.msa
#FORMAT      : EMSA/MAS Spectral Data File
#VERSION     : 1.0
#TITLE       : LuF3 standard for 'N132962' detector
#NPOINTS     : 4096
#NCOLUMNS    : 1
#XUNITS      : eV
#YUNITS      : counts
#DATATYPE    : Y
#SIGNALTYPE  : EDS
#XLABEL      : Energy (eV)
#YLABEL      : Counts
#XPERCHAN -eV: 9.99778
#OFFSET   -eV: 1.69135
#CHOFFSET    : 0
#DATE        : 26-Sep-2025
#TIME        : 16:08:00
#OWNER       : Unknown
#ELEVANGLE   : 35
#BEAMKV   -kV: 15
#LIVETIME  -s: 1437.79
#REALTIME  -s: 1561.64
#PROBECUR -nA: 1.22066
##WORKING -mm: 15
##D2STDCMP   : LuF3,(F:24.5709),(Lu:75.4291)
##SIMILAR    : 14.8
#SPECTRUM    :
153,
4876,
73474,
43108,
68494,
541838,
48197,
51271,
57897,
128092,
63456,
802153,
203009,
62002,
31470,
35065,
31153,
28771,
28871,
28712,
29297,
29770,
29436,
30588,
28364,
27699,
27187,
26612,
26480,
25598,
25007,
24766,
24183,
23453,
22834,
22454,
21834,
21178,
20917,
20687,
19485,
18911,
18823,
17989,
17349,
17381,
18640,
15987,
19532,
16228,
14839,
14278,
13869,
14204,
54649,
89348,
14437,
11936,
11363,
11052,
10602,
14048,
42305,
21390,
18469,
21574,
8882,
7803,
7440,
7111,
7074,
6994,
10309,
8852,
6453,
7096,
5596,
5293,
4894,
4505,
4233,
4201,
4003,
3763,
3515,
3333,
3174,
2924,
2772,
2539,
2293,
2216,
1915,
1843,
1672,
1467,
1403,
1252,
1055,
942,
834,
602,
478,
326,
246,
152,
69,
30,
30,
28,
37,
21,
15,
18,
15,
16,
16,
20,
17,
10,
11,
10,
14,
10,
10,
17,
24,
15,
11,
9,
7,
8,
8,
5,
8,
4,
8,
10,
6,
10,
7,
9,
5,
2,
6,
4,
6,
4,
8,
3,
3,
2,
3,
0,
0,
1,
2,
1,
2,
0,
1,
0,
2,
0,
0,
1,
0,
0,
0,
2,
0,
2,
0,
0,
0,
0,
0,
0,
0,
1,
0,
0,
0,
0,
0,
0,
0,
0,
0,
0,
0,
0,
0,
0,
1,
0,
0,
0,
0,
0,
0,
0,
0,
0,
0,
0,
0,
0,
0,
0,
0,
0,
0,
0,
0,
0,
0,
0,
0,
0,
0,
0,
0,
0,
0,
0,
0,
0,
0,
0,
0,
0,
0,
0,
0,
0,
0,
0,
0,
0,
0,
0,
0,
0,
0,
0,
0,
0,
0,
0,
0,
0,
0,
0,
0,
0,
0,
0,
0,
0,
0,
0,
0,
0,
0,
0,
0,
0,
0,
0,
0,
0,
0,
0,
0,
0,
0,
0,
0,
0,
0,
0,
0,
0,
0,
0,
0,
0,
0,
0,
0,
0,
0,
0,
#ENDOFDATA   :

File: LuP5O14 std.msa
#FORMAT      : EMSA/MAS Spectral Data File
#VERSION     : 1.0
#TITLE       : LuP5O14 standard for 'N132962' detector
#NPOINTS     : 4096
#NCOLUMNS    : 1
#XUNITS      : eV
#YUNITS      : counts
#DATATYPE    : Y
#SIGNALTYPE  : EDS
#XLABEL      : Energy (eV)
#YLABEL      : Counts
#XPERCHAN -eV: 9.99778
#OFFSET   -eV: 1.69135
#CHOFFSET    : 0
#DATE        : 17-Mar-2025
#TIME        : 15:48:00
#OWNER       : Unknown
#ELEVANGLE   : 35
#BEAMKV   -kV: 15
#LIVETIME  -s: 1199.08
#REALTIME  -s: 1270.2
#PROBECUR -nA: 1.0242
##WORKING -mm: 15
##D2STDCMP   : LuP5O14,(O:40.4437),(P:27.9637),(Lu:31.5926)
##SIMILAR    : 1.7
#SPECTRUM    :
117,
1882,
87355,
38270,
258122,
20349,
23770,
26748,
29252,
51536,
31110,
247834,
83014,
36701,
290936,
91319,
15884,
14323,
15504,
14024,
13848,
13600,
13105,
13158,
12689,
12162,
12732,
11442,
11144,
11176,
10497,
10024,
9626,
9436,
9076,
8766,
8381,
8131,
7894,
7839,
7253,
7164,
6977,
6834,
6541,
6394,
6323,
5745,
6535,
5759,
5247,
5112,
4796,
5120,
14977,
24171,
4772,
4137,
3923,
3793,
3575,
4421,
11579,
6302,
5532,
6198,
3075,
2685,
2771,
2459,
2362,
2349,
3119,
2770,
2056,
2182,
1834,
1777,
1581,
1536,
1434,
1388,
1326,
1196,
1195,
1060,
975,
900,
844,
832,
737,
671,
629,
579,
524,
476,
428,
360,
319,
307,
260,
210,
175,
150,
83,
58,
36,
12,
4,
3,
4,
3,
2,
3,
2,
2,
1,
3,
3,
0,
1,
4,
0,
1,
3,
3,
2,
1,
0,
1,
3,
2,
1,
1,
1,
0,
0,
0,
1,
3,
0,
0,
1,
0,
0,
0,
2,
1,
1,
1,
0,
0,
0,
0,
1,
0,
1,
1,
0,
0,
0,
1,
0,
0,
0,
0,
0,
0,
0,
0,
0,
0,
0,
0,
1,
0,
0,
0,
0,
0,
0,
0,
0,
0,
0,
0,
0,
0,
0,
0,
0,
0,
0,
0,
0,
0,
0,
0,
0,
0,
0,
0,
0,
0,
0,
0,
0,
0,
0,
0,
0,
0,
0,
0,
0,
0,
0,
0,
0,
0,
0,
0,
0,
0,
0,
0,
0,
0,
0,
0,
0,
0,
0,
0,
0,
0,
0,
0,
0,
0,
0,
0,
0,
0,
0,
0,
0,
0,
0,
0,
0,
0,
0,
0,
0,
0,
0,
0,
0,
0,
0,
0,
0,
0,
0,
0,
0,
0,
0,
0,
0,
0,
0,
0,
0,
0,
0,
0,
0,
0,
0,
0,
0,
0,
0,
0,
0,
0,
0,
0,
0,
0,
0,
0,
#ENDOFDATA   :

File: MgO std.msa
#FORMAT      : EMSA/MAS Spectral Data File
#VERSION     : 1.0
#TITLE       : MgO standard for 'N132962' detector
#NPOINTS     : 4096
#NCOLUMNS    : 1
#XUNITS      : eV
#YUNITS      : counts
#DATATYPE    : Y
#SIGNALTYPE  : EDS
#XLABEL      : Energy (eV)
#YLABEL      : Counts
#XPERCHAN -eV: 9.99778
#OFFSET   -eV: 1.69135
#CHOFFSET    : 0
#DATE        : 27-Sep-2025
#TIME        : 16:08:00
#OWNER       : Unknown
#ELEVANGLE   : 35
#BEAMKV   -kV: 15
#LIVETIME  -s: 1439.45
#REALTIME  -s: 1562.67
#PROBECUR -nA: 1.21
##WORKING -mm: 15
##D2STDCMP   : MgO,(O:39.6958),(Mg:60.3042)
##SIMILAR    : 1.3
#SPECTRUM    :
164,
1523,
36217,
64866,
574590,
19189,
25369,
35439,
63067,
3372610,
15348,
14279,
16813,
21579,
13679,
14009,
13793,
13926,
25635,
12167,
11779,
11542,
10654,
10237,
10107,
9427,
9684,
8854,
8361,
8084,
7559,
7164,
6899,
6603,
6300,
6072,
5819,
5687,
5405,
4995,
4867,
4764,
4553,
4358,
3971,
3894,
3838,
3596,
3534,
3322,
3178,
3148,
2988,
2919,
2686,
2513,
2431,
2412,
2345,
2199,
2087,
2085,
1869,
1779,
1706,
1695,
1548,
1441,
1449,
1323,
1281,
1302,
1157,
1124,
1034,
1004,
953,
909,
848,
802,
777,
682,
675,
577,
572,
509,
517,
436,
397,
397,
346,
313,
292,
279,
234,
216,
206,
175,
160,
125,
123,
93,
73,
57,
43,
32,
17,
6,
1,
0,
4,
3,
0,
0,
0,
0,
0,
0,
0,
0,
1,
1,
0,
0,
0,
1,
0,
1,
0,
0,
0,
0,
1,
0,
0,
0,
0,
0,
0,
0,
0,
0,
0,
0,
0,
0,
0,
0,
0,
0,
0,
0,
0,
0,
0,
0,
0,
0,
0,
0,
0,
0,
0,
0,
0,
0,
0,
0,
0,
0,
0,
0,
0,
0,
0,
0,
0,
0,
0,
1,
0,
0,
0,
0,
0,
0,
0,
0,
0,
0,
0,
0,
0,
0,
0,
0,
0,
0,
0,
0,
0,
0,
0,
0,
0,
0,
0,
0,
0,
0,
0,
0,
0,
0,
0,
0,
0,
0,
0,
0,
0,
0,
0,
0,
0,
0,
0,
0,
0,
0,
0,
0,
0,
0,
0,
0,
0,
0,
0,
0,
0,
0,
0,
0,
0,
0,
0,
0,
0,
0,
0,
0,
0,
0,
0,
0,
0,
0,
0,
0,
0,
0,
0,
0,
0,
0,
0,
0,
0,
0,
0,
0,
0,
0,
0,
0,
0,
0,
0,
0,
0,
0,
0,
0,
0,
0,
0,
0,
0,
0,
0,
0,
0,
0,
#ENDOFDATA   :