Folder: spex_quant/N132962/Standards/15 keV (part 2)

File: CeO2 std.msa
#FORMAT      : EMSA/MAS Spectral Data File
#VERSION     : 1.0
#TITLE       : CeO2 standard for 'N132962' detector
#NPOINTS     : 4096
#NCOLUMNS    : 1
#XUNITS      : eV
#YUNITS      : counts
#DATATYPE    : Y
#SIGNALTYPE  : EDS
#XLABEL      : Energy (eV)
#YLABEL      : Counts
#XPERCHAN -eV: 9.99778
#OFFSET   -eV: 1.69135
#CHOFFSET    : 0
#DATE        : 26-Sep-2025
#TIME        : 15:57:00
#OWNER       : Unknown
#ELEVANGLE   : 35
#BEAMKV   -kV: 15
#LIVETIME  -s: 1916.18
#REALTIME  -s: 2061.03
#PROBECUR -nA: 1.22066
##WORKING -mm: 15
##D2STDCMP   : CeO2,(O:18.5912),(Ce:81.4088)
##SIMILAR    : 1.1
#SPECTRUM    :
210,
11757,
164008,
114683,
427661,
214671,
194612,
48702,
68095,
46620,
47774,
48837,
52092,
53417,
48213,
48510,
48765,
48321,
48304,
47019,
46033,
45418,
47546,
42550,
41154,
41377,
39144,
37959,
36817,
35487,
39259,
47145,
33351,
34397,
214768,
304404,
31341,
102144,
200284,
44213,
114211,
32507,
23469,
50197,
26166,
31719,
23798,
19055,
16975,
16765,
16761,
15923,
15341,
15217,
14671,
14093,
13800,
13278,
12955,
12669,
12120,
11707,
11351,
10882,
10560,
10223,
9847,
9506,
9300,
9056,
8665,
8322,
8083,
7700,
7235,
6914,
6696,
6397,
6127,
5810,
5349,
5099,
4719,
4597,
4405,
4102,
3884,
3495,
3374,
3163,
2869,
2714,
2351,
2339,
2001,
1781,
1658,
1489,
1278,
1089,
953,
764,
604,
428,
298,
142,
39,
34,
21,
23,
18,
23,
19,
17,
18,
17,
12,
24,
19,
13,
17,
26,
20,
17,
19,
16,
14,
13,
11,
15,
16,
6,
7,
16,
5,
10,
7,
3,
7,
4,
4,
4,
3,
3,
2,
5,
0,
4,
2,
1,
2,
4,
1,
0,
2,
2,
1,
1,
0,
0,
1,
1,
0,
1,
1,
2,
1,
1,
0,
0,
0,
0,
0,
0,
1,
0,
0,
0,
0,
0,
0,
0,
0,
0,
1,
0,
1,
0,
0,
0,
0,
0,
0,
0,
0,
0,
0,
0,
0,
0,
0,
0,
0,
0,
0,
0,
0,
0,
0,
0,
0,
0,
0,
0,
0,
0,
0,
0,
0,
0,
0,
0,
0,
0,
0,
0,
0,
0,
0,
0,
0,
0,
0,
0,
0,
0,
0,
0,
0,
0,
0,
0,
0,
0,
0,
0,
0,
0,
0,
0,
0,
0,
0,
0,
0,
0,
0,
0,
0,
0,
0,
0,
0,
0,
0,
0,
0,
0,
0,
0,
0,
0,
0,
0,
0,
0,
0,
0,
0,
0,
0,
0,
0,
0,
0,
0,
0,
0,
0,
0,
0,
0,
0,
0,
#ENDOFDATA   :

File: CeP5O14 std.msa
#FORMAT      : EMSA/MAS Spectral Data File
#VERSION     : 1.0
#TITLE       : CeP5O14 standard for 'N132962' detector
#NPOINTS     : 4096
#NCOLUMNS    : 1
#XUNITS      : eV
#YUNITS      : counts
#DATATYPE    : Y
#SIGNALTYPE  : EDS
#XLABEL      : Energy (eV)
#YLABEL      : Counts
#XPERCHAN -eV: 9.99778
#OFFSET   -eV: 1.69135
#CHOFFSET    : 0
#DATE        : 17-Mar-2025
#TIME        : 17:06:00
#OWNER       : Unknown
#ELEVANGLE   : 35
#BEAMKV   -kV: 15
#LIVETIME  -s: 1438.64
#REALTIME  -s: 1518.4
#PROBECUR -nA: 1.0263
##WORKING -mm: 15
##D2STDCMP   : CeP5O14,(O:43.1597),(P:29.8415),(Ce:26.9988)
##SIMILAR    : 2.1
#SPECTRUM    :
155,
2011,
93710,
53508,
411569,
38947,
44081,
25141,
31212,
25561,
26086,
26677,
27996,
30467,
389515,
117553,
19153,
16760,
19056,
16294,
15430,
15390,
15241,
14316,
13751,
13495,
12811,
12417,
11877,
12160,
11884,
13106,
10195,
10384,
42304,
60640,
9202,
21920,
39602,
10978,
23762,
8796,
7079,
12237,
7363,
8541,
6801,
5840,
5374,
5324,
5020,
4926,
4731,
4748,
4499,
4208,
4061,
3894,
3753,
3657,
3516,
3295,
3232,
3152,
3028,
2819,
2792,
2637,
2491,
2563,
2347,
2217,
2191,
2134,
1907,
1869,
1698,
1596,
1602,
1489,
1367,
1371,
1229,
1133,
1046,
1105,
965,
868,
866,
755,
720,
614,
615,
523,
503,
456,
367,
354,
332,
300,
237,
183,
156,
109,
81,
66,
30,
12,
2,
1,
5,
2,
7,
2,
2,
2,
2,
3,
0,
4,
1,
2,
0,
1,
2,
1,
4,
2,
1,
1,
0,
1,
0,
0,
0,
1,
0,
2,
0,
1,
0,
1,
0,
0,
0,
1,
0,
2,
0,
0,
0,
2,
0,
0,
0,
0,
0,
0,
0,
0,
0,
0,
0,
0,
0,
0,
0,
0,
0,
0,
0,
0,
0,
0,
0,
0,
1,
0,
0,
0,
0,
0,
0,
0,
0,
0,
0,
0,
0,
0,
0,
0,
0,
0,
0,
0,
0,
0,
0,
0,
0,
0,
0,
0,
0,
0,
0,
0,
0,
0,
0,
0,
0,
0,
0,
0,
0,
0,
0,
0,
0,
0,
0,
0,
0,
0,
0,
0,
0,
0,
0,
0,
0,
0,
0,
0,
0,
0,
0,
0,
0,
0,
0,
0,
0,
0,
0,
0,
0,
0,
0,
0,
0,
0,
0,
0,
0,
0,
0,
0,
0,
0,
0,
0,
0,
0,
0,
0,
0,
0,
0,
0,
0,
0,
0,
0,
0,
0,
0,
0,
0,
0,
0,
0,
0,
0,
0,
0,
0,
0,
0,
0,
0,
0,
#ENDOFDATA   :

File: Co std.msa
#FORMAT      : EMSA/MAS Spectral Data File
#VERSION     : 1.0
#TITLE       : Co standard for 'N132962' detector
#NPOINTS     : 4096
#NCOLUMNS    : 1
#XUNITS      : eV
#YUNITS      : counts
#DATATYPE    : Y
#SIGNALTYPE  : EDS
#XLABEL      : Energy (eV)
#YLABEL      : Counts
#XPERCHAN -eV: 9.99778
#OFFSET   -eV: 1.69135
#CHOFFSET    : 0
#DATE        : 26-Sep-2025
#TIME        : 22:49:00
#OWNER       : Unknown
#ELEVANGLE   : 35
#BEAMKV   -kV: 15
#LIVETIME  -s: 2149.45
#REALTIME  -s: 2308.2
#PROBECUR -nA: 1.21491
##WORKING -mm: 15
##D2STDCMP   : Co,(Co:100.0000)
##SIMILAR    : 1.4
#SPECTRUM    :
228,
3884,
95089,
77789,
132563,
774822,
248922,
30585,
36772,
42623,
47834,
52942,
52090,
53531,
48207,
48021,
48159,
46592,
45387,
45011,
42701,
41143,
39738,
38138,
37039,
35429,
34377,
32879,
31342,
30791,
29248,
28442,
27359,
26465,
25102,
24467,
23534,
25039,
22967,
23166,
20478,
19862,
19788,
18362,
17522,
17997,
19552,
16592,
21080,
472873,
356298,
15897,
13877,
15453,
56436,
81060,
11066,
9683,
9471,
9469,
9236,
8390,
8320,
8125,
7820,
7477,
7344,
6995,
6792,
6630,
6204,
6023,
5740,
5447,
5218,
4939,
4703,
4565,
4313,
4086,
3859,
3753,
3507,
3344,
3051,
2874,
2711,
2611,
2361,
2257,
2065,
1901,
1769,
1608,
1422,
1278,
1258,
1060,
1078,
1254,
765,
623,
544,
404,
412,
243,
116,
37,
25,
22,
20,
25,
14,
22,
15,
19,
13,
16,
10,
10,
8,
14,
18,
14,
11,
8,
16,
12,
11,
15,
9,
5,
12,
4,
5,
14,
6,
3,
2,
10,
5,
2,
5,
3,
3,
3,
2,
3,
4,
5,
1,
0,
0,
1,
0,
0,
0,
1,
0,
0,
1,
0,
1,
0,
0,
1,
0,
0,
0,
0,
0,
0,
0,
0,
0,
0,
0,
0,
0,
0,
0,
0,
0,
0,
1,
0,
0,
0,
0,
0,
0,
0,
0,
0,
0,
0,
0,
0,
0,
0,
0,
0,
0,
0,
0,
0,
0,
0,
0,
0,
0,
0,
0,
0,
0,
0,
0,
0,
0,
0,
0,
0,
0,
0,
0,
0,
0,
0,
0,
0,
0,
0,
0,
0,
0,
0,
0,
0,
0,
0,
0,
0,
0,
0,
0,
0,
0,
0,
0,
0,
0,
0,
0,
0,
0,
0,
0,
0,
0,
0,
0,
0,
0,
0,
0,
0,
0,
0,
0,
0,
0,
0,
0,
0,
0,
0,
0,
0,
0,
0,
0,
0,
0,
0,
0,
0,
0,
0,
0,
0,
0,
0,
0,
0,
#ENDOFDATA   :

File: Cr2O3 std.msa
#FORMAT      : EMSA/MAS Spectral Data File
#VERSION     : 1.0
#TITLE       : Cr2O3 standard for 'N132962' detector
#NPOINTS     : 4096
#NCOLUMNS    : 1
#XUNITS      : eV
#YUNITS      : counts
#DATATYPE    : Y
#SIGNALTYPE  : EDS
#XLABEL      : Energy (eV)
#YLABEL      : Counts
#XPERCHAN -eV: 9.99778
#OFFSET   -eV: 1.69135
#CHOFFSET    : 0
#DATE        : 28-Sep-2025
#TIME        : 18:39:00
#OWNER       : Unknown
#ELEVANGLE   : 35
#BEAMKV   -kV: 15
#LIVETIME  -s: 1920.27
#REALTIME  -s: 2056.36
#PROBECUR -nA: 1.21498
##WORKING -mm: 15
##D2STDCMP   : Cr2O3,(O:31.5792),(Cr:68.4208)
##SIMILAR    : 1.1
#SPECTRUM    :
182,
3570,
126499,
183607,
1037566,
21677,
24038,
32827,
32956,
36760,
39390,
41537,
43130,
42139,
35729,
34943,
33869,
32812,
31316,
30008,
28335,
27182,
25845,
24415,
23419,
22587,
25300,
20813,
19567,
18961,
18548,
17468,
16602,
16305,
15682,
14765,
14549,
16618,
225276,
591639,
15287,
14133,
74943,
55696,
9024,
8917,
9494,
8398,
8054,
7748,
7571,
7380,
7029,
6871,
6653,
6426,
5984,
6057,
5771,
5479,
5308,
5141,
4867,
4696,
4399,
4315,
4230,
3938,
3815,
3848,
3375,
3355,
3283,
3104,
2861,
2701,
2644,
2917,
2550,
2306,
2090,
2168,
1824,
1822,
1651,
1491,
1383,
1340,
1226,
1172,
1060,
991,
890,
860,
764,
661,
601,
531,
497,
415,
347,
314,
291,
169,
139,
107,
55,
34,
13,
4,
11,
3,
10,
11,
7,
4,
8,
7,
1,
6,
7,
5,
6,
2,
4,
6,
1,
6,
1,
3,
0,
3,
4,
3,
3,
4,
2,
2,
1,
2,
2,
1,
0,
3,
0,
0,
0,
0,
0,
0,
0,
0,
0,
0,
0,
1,
0,
0,
0,
0,
0,
0,
0,
1,
0,
0,
0,
0,
0,
0,
1,
0,
0,
0,
0,
0,
0,
0,
0,
0,
0,
0,
0,
0,
0,
0,
0,
0,
0,
0,
0,
0,
0,
0,
0,
0,
0,
0,
0,
0,
0,
0,
0,
0,
0,
0,
0,
0,
0,
0,
0,
0,
0,
0,
0,
0,
0,
0,
0,
0,
0,
0,
0,
0,
0,
0,
0,
0,
0,
0,
0,
0,
0,
0,
0,
0,
0,
0,
0,
0,
0,
0,
0,
0,
0,
0,
0,
0,
0,
0,
0,
0,
0,
0,
0,
0,
0,
0,
0,
0,
0,
0,
0,
0,
0,
0,
0,
0,
0,
0,
0,
0,
0,
0,
0,
0,
0,
0,
0,
0,
0,
0,
0,
0,
0,
0,
0,
0,
0,
0,
0,
0,
0,
0,
#ENDOFDATA   :

File: Cr std.msa
#FORMAT      : EMSA/MAS Spectral Data File
#VERSION     : 1.0
#TITLE       : Cr standard for 'N132962' detector
#NPOINTS     : 4096
#NCOLUMNS    : 1
#XUNITS      : eV
#YUNITS      : counts
#DATATYPE    : Y
#SIGNALTYPE  : EDS
#XLABEL      : Energy (eV)
#YLABEL      : Counts
#XPERCHAN -eV: 9.99778
#OFFSET   -eV: 1.69135
#CHOFFSET    : 0
#DATE        : 26-Sep-2025
#TIME        : 22:06:00
#OWNER       : Unknown
#ELEVANGLE   : 35
#BEAMKV   -kV: 15
#LIVETIME  -s: 2158.94
#REALTIME  -s: 2318.47
#PROBECUR -nA: 1.21395
##WORKING -mm: 15
##D2STDCMP   : Cr,(Cr:100.0000)
##SIMILAR    : 1.1
#SPECTRUM    :
238,
4254,
81084,
185195,
1184067,
30600,
32003,
38411,
46081,
49177,
52499,
56607,
63102,
60934,
50820,
49467,
48835,
46577,
45031,
43314,
41973,
40058,
38267,
36609,
34782,
34027,
39791,
31670,
29531,
28530,
28515,
26302,
25754,
25067,
23695,
23311,
22714,
26454,
403775,
1065430,
24680,
22321,
128608,
97689,
13463,
14004,
15881,
12767,
12162,
11986,
11916,
11495,
10891,
10825,
10257,
9754,
9412,
9266,
8762,
8621,
8266,
8089,
7687,
7543,
7170,
6898,
6623,
6424,
6105,
5867,
5654,
5466,
5252,
4945,
4749,
4477,
4388,
5243,
4391,
3689,
3519,
3641,
3189,
2906,
2733,
2516,
2359,
2304,
2123,
1886,
1757,
1609,
1470,
1398,
1271,
1191,
1124,
888,
764,
716,
612,
559,
441,
346,
247,
203,
110,
49,
26,
28,
19,
13,
26,
14,
19,
12,
10,
10,
12,
9,
9,
20,
12,
12,
12,
11,
9,
9,
8,
8,
4,
5,
7,
8,
7,
7,
4,
2,
4,
4,
2,
1,
0,
3,
0,
5,
0,
0,
2,
1,
0,
0,
0,
0,
1,
0,
0,
1,
0,
0,
0,
0,
2,
0,
1,
0,
1,
1,
1,
0,
0,
0,
0,
0,
0,
0,
0,
0,
0,
0,
0,
0,
0,
0,
0,
0,
0,
0,
0,
0,
0,
0,
0,
0,
0,
0,
0,
0,
0,
0,
0,
0,
0,
0,
0,
0,
0,
0,
0,
0,
0,
0,
0,
0,
0,
0,
0,
0,
0,
0,
0,
0,
0,
0,
0,
0,
0,
0,
0,
0,
0,
0,
0,
0,
0,
0,
0,
0,
0,
0,
0,
0,
0,
0,
0,
0,
0,
0,
0,
0,
0,
0,
0,
0,
0,
0,
0,
0,
0,
0,
0,
0,
0,
0,
0,
0,
0,
0,
0,
0,
0,
0,
0,
0,
0,
0,
0,
0,
0,
0,
0,
0,
0,
0,
0,
0,
0,
0,
0,
0,
0,
0,
0,
0,
#ENDOFDATA   :

File: CsBr std.msa
#FORMAT      : EMSA/MAS Spectral Data File
#VERSION     : 1.0
#TITLE       : CsBr standard for 'N132962' detector
#NPOINTS     : 4096
#NCOLUMNS    : 1
#XUNITS      : eV
#YUNITS      : counts
#DATATYPE    : Y
#SIGNALTYPE  : EDS
#XLABEL      : Energy (eV)
#YLABEL      : Counts
#XPERCHAN -eV: 9.99778
#OFFSET   -eV: 1.69135
#CHOFFSET    : 0
#DATE        : 26-Sep-2025
#TIME        : 16:18:00
#OWNER       : Unknown
#ELEVANGLE   : 35
#BEAMKV   -kV: 15
#LIVETIME  -s: 1196.47
#REALTIME  -s: 1290.78
#PROBECUR -nA: 1.21623
##WORKING -mm: 15
##D2STDCMP   : CsBr,(Br:37.5472),(Cs:62.4528)
##SIMILAR    : 4.9
#SPECTRUM    :
122,
3598,
62357,
38220,
159391,
83548,
37282,
47516,
35393,
54281,
92297,
387158,
35795,
34185,
29795,
30799,
33218,
31101,
33434,
30658,
30580,
30737,
29115,
28624,
27467,
26953,
26566,
38040,
25921,
26175,
104538,
218094,
27499,
184908,
49985,
63130,
27762,
21166,
33595,
19259,
20984,
16158,
14446,
14054,
13762,
13736,
14180,
12626,
12552,
11932,
11878,
11229,
10898,
10859,
10339,
9840,
9713,
9346,
9276,
9017,
8537,
8337,
8104,
7804,
7654,
7352,
6966,
6823,
6586,
6300,
6190,
5884,
5605,
5378,
5126,
4792,
4593,
4448,
4290,
4044,
3954,
3749,
3488,
3388,
4106,
7059,
3603,
2649,
2431,
2238,
2093,
2004,
1794,
1620,
1726,
1901,
1357,
1132,
1045,
895,
763,
658,
571,
426,
340,
252,
129,
46,
16,
26,
13,
19,
9,
20,
15,
18,
13,
15,
8,
13,
12,
10,
12,
9,
9,
8,
5,
9,
5,
7,
7,
11,
4,
3,
2,
5,
5,
2,
6,
4,
2,
0,
2,
1,
3,
2,
4,
2,
2,
4,
0,
0,
0,
0,
2,
1,
1,
1,
0,
1,
0,
0,
1,
0,
0,
0,
1,
1,
0,
1,
0,
0,
2,
0,
0,
0,
0,
0,
0,
1,
0,
0,
0,
0,
0,
0,
0,
0,
0,
1,
0,
0,
0,
0,
0,
0,
0,
0,
0,
0,
0,
0,
0,
0,
0,
0,
0,
0,
0,
0,
0,
0,
0,
0,
0,
0,
0,
0,
0,
0,
0,
0,
0,
0,
0,
0,
0,
0,
0,
0,
0,
0,
0,
0,
0,
0,
0,
0,
0,
0,
0,
0,
0,
0,
0,
0,
0,
0,
0,
0,
0,
0,
0,
0,
0,
0,
0,
0,
0,
0,
0,
0,
0,
0,
0,
0,
0,
0,
0,
0,
0,
0,
0,
0,
0,
0,
0,
0,
0,
0,
0,
0,
0,
0,
0,
0,
0,
0,
0,
0,
0,
0,
0,
0,
#ENDOFDATA   :

File: CsI std.msa
#FORMAT      : EMSA/MAS Spectral Data File
#VERSION     : 1.0
#TITLE       : CsI standard for 'N132962' detector
#NPOINTS     : 4096
#NCOLUMNS    : 1
#XUNITS      : eV
#YUNITS      : counts
#DATATYPE    : Y
#SIGNALTYPE  : EDS
#XLABEL      : Energy (eV)
#YLABEL      : Counts
#XPERCHAN -eV: 9.99778
#OFFSET   -eV: 1.69135
#CHOFFSET    : 0
#DATE        : 29-Sep-2025
#TIME        : 11:15:00
#OWNER       : Unknown
#ELEVANGLE   : 35
#BEAMKV   -kV: 15
#LIVETIME  -s: 1920.36
#REALTIME  -s: 2089.06
#PROBECUR -nA: 1.22564
##WORKING -mm: 15
##D2STDCMP   : CsI,(I:48.8451),(Cs:51.1549)
##SIMILAR    : 1.4
#SPECTRUM    :
234,
20725,
191767,
145648,
362773,
87770,
68028,
69155,
49134,
54441,
59506,
63616,
68497,
69803,
62180,
63785,
65102,
62999,
66456,
60450,
59255,
57197,
55249,
53990,
53148,
70741,
50331,
79801,
551644,
75932,
376103,
382281,
114789,
258733,
96560,
93773,
55304,
36548,
49670,
31451,
33488,
26829,
24678,
24745,
24057,
23681,
23891,
22495,
21880,
21388,
21162,
20426,
19879,
19801,
18939,
18064,
17828,
17338,
16875,
16594,
15681,
15612,
15056,
14451,
14014,
13371,
13021,
12467,
12134,
11522,
11268,
10449,
10365,
9962,
9505,
9385,
8824,
8244,
8141,
7640,
7322,
6891,
6654,
6128,
5866,
5383,
5204,
4829,
4695,
4323,
4000,
3782,
3453,
3191,
2917,
2647,
2468,
2160,
2010,
1737,
1502,
1294,
1065,
880,
689,
470,
221,
68,
48,
55,
42,
38,
35,
40,
31,
27,
20,
22,
26,
22,
21,
33,
27,
26,
29,
39,
20,
29,
20,
13,
14,
9,
12,
6,
14,
8,
12,
8,
8,
6,
5,
3,
5,
3,
4,
3,
3,
0,
7,
4,
5,
1,
1,
3,
2,
2,
1,
3,
0,
0,
1,
0,
2,
3,
2,
0,
1,
2,
2,
0,
0,
0,
0,
1,
0,
0,
1,
0,
0,
0,
0,
0,
1,
0,
1,
0,
0,
0,
0,
0,
0,
0,
0,
0,
0,
0,
0,
0,
0,
0,
0,
0,
0,
0,
0,
0,
0,
0,
0,
0,
0,
0,
0,
0,
0,
0,
0,
0,
0,
0,
0,
0,
0,
0,
0,
0,
0,
0,
0,
0,
0,
0,
0,
0,
0,
0,
0,
0,
0,
0,
0,
0,
0,
0,
0,
0,
0,
0,
0,
0,
0,
0,
0,
0,
0,
0,
0,
0,
0,
0,
0,
0,
0,
0,
0,
0,
0,
0,
0,
0,
0,
0,
0,
0,
0,
0,
0,
0,
0,
0,
0,
0,
0,
0,
0,
0,
0,
0,
0,
0,
0,
0,
0,
0,
#ENDOFDATA   :

File: Cu std.msa
#FORMAT      : EMSA/MAS Spectral Data File
#VERSION     : 1.0
#TITLE       : Cu standard for 'N132962' detector
#NPOINTS     : 4096
#NCOLUMNS    : 1
#XUNITS      : eV
#YUNITS      : counts
#DATATYPE    : Y
#SIGNALTYPE  : EDS
#XLABEL      : Energy (eV)
#YLABEL      : Counts
#XPERCHAN -eV: 9.99778
#OFFSET   -eV: 1.69135
#CHOFFSET    : 0
#DATE        : 28-Sep-2025
#TIME        : 20:12:00
#OWNER       : Unknown
#ELEVANGLE   : 35
#BEAMKV   -kV: 15
#LIVETIME  -s: 1440.39
#REALTIME  -s: 1577.46
#PROBECUR -nA: 1.21481
##WORKING -mm: 15
##D2STDCMP   : Cu,(Cu:100.0000)
##SIMILAR    : 1.2
#SPECTRUM    :
164,
2645,
98840,
42427,
69749,
92142,
441597,
905280,
22815,
25244,
28778,
33419,
35252,
44105,
31821,
31591,
31303,
31464,
30609,
30518,
29277,
28282,
27396,
26526,
25826,
24495,
24080,
23175,
22265,
21489,
20944,
19771,
19005,
18358,
17845,
17147,
16690,
16206,
15541,
15120,
14361,
13813,
13497,
13188,
12679,
12884,
12215,
11192,
10824,
10575,
10062,
9788,
9363,
9355,
9166,
8868,
12153,
211498,
137707,
8402,
7140,
7148,
7339,
26351,
33297,
5952,
5079,
4867,
4546,
4631,
4687,
4263,
4105,
3802,
3634,
3577,
3350,
3198,
3199,
2938,
2723,
2667,
2574,
2292,
2247,
2041,
2050,
1885,
1709,
1604,
1498,
1372,
1303,
1184,
1100,
954,
850,
783,
699,
613,
518,
445,
365,
294,
221,
178,
96,
36,
13,
15,
13,
16,
10,
17,
43,
78,
36,
7,
13,
10,
19,
35,
16,
12,
9,
12,
7,
10,
10,
8,
8,
8,
4,
7,
7,
2,
3,
1,
2,
3,
3,
1,
5,
1,
2,
1,
3,
1,
1,
3,
2,
0,
1,
1,
0,
2,
1,
0,
1,
1,
0,
0,
0,
0,
0,
0,
1,
0,
0,
0,
0,
0,
0,
1,
0,
0,
1,
1,
0,
0,
0,
0,
0,
0,
0,
0,
0,
0,
0,
0,
0,
1,
0,
0,
0,
0,
0,
0,
0,
0,
0,
0,
0,
0,
0,
0,
0,
0,
0,
0,
0,
0,
0,
0,
0,
0,
0,
0,
0,
0,
0,
0,
0,
0,
0,
0,
0,
0,
0,
0,
0,
0,
0,
0,
0,
0,
0,
0,
0,
0,
0,
0,
0,
0,
0,
0,
0,
0,
0,
0,
0,
0,
0,
0,
0,
0,
0,
0,
0,
0,
0,
0,
0,
0,
0,
0,
0,
0,
0,
0,
0,
0,
0,
0,
0,
0,
0,
0,
0,
0,
0,
0,
0,
0,
0,
0,
0,
0,
0,
0,
0,
0,
0,
0,
#ENDOFDATA   :

File: Dy std.msa
#FORMAT      : EMSA/MAS Spectral Data File
#VERSION     : 1.0
#TITLE       : Dy standard for 'N132962' detector
#NPOINTS     : 4096
#NCOLUMNS    : 1
#XUNITS      : eV
#YUNITS      : counts
#DATATYPE    : Y
#SIGNALTYPE  : EDS
#XLABEL      : Energy (eV)
#YLABEL      : Counts
#XPERCHAN -eV: 9.99778
#OFFSET   -eV: 1.69135
#CHOFFSET    : 0
#DATE        : 26-Sep-2025
#TIME        : 17:32:00
#OWNER       : Unknown
#ELEVANGLE   : 35
#BEAMKV   -kV: 15
#LIVETIME  -s: 1440.73
#REALTIME  -s: 1565.95
#PROBECUR -nA: 1.21629
##WORKING -mm: 15
##D2STDCMP   : Dy,(Dy:100.0000)
##SIMILAR    : 3.1
#SPECTRUM    :
150,
4656,
86521,
62383,
110943,
110510,
88095,
316551,
92385,
370779,
79637,
73528,
58432,
42993,
37491,
37882,
39210,
40172,
40344,
41396,
40483,
40167,
39627,
39334,
38680,
38264,
37711,
36683,
35708,
34879,
34033,
33680,
32652,
31657,
32112,
30122,
29262,
28396,
27904,
27674,
27291,
38270,
26277,
24520,
23851,
27115,
234109,
114360,
21833,
20418,
20485,
51082,
122241,
35061,
45896,
43020,
15986,
14195,
14693,
15655,
30741,
15730,
16913,
14272,
12117,
11298,
10617,
10418,
10073,
9679,
9386,
9199,
8881,
8497,
8266,
7969,
7624,
7159,
7094,
6603,
6235,
5988,
5893,
5392,
5186,
4955,
4679,
4358,
4192,
3781,
3670,
3318,
3228,
3087,
2625,
2442,
2256,
2083,
1849,
1700,
1405,
1261,
982,
818,
645,
484,
278,
138,
39,
41,
34,
42,
31,
31,
30,
37,
18,
30,
21,
18,
26,
31,
25,
30,
25,
27,
31,
23,
24,
23,
24,
10,
22,
13,
22,
16,
7,
14,
13,
10,
7,
14,
14,
8,
7,
7,
5,
8,
5,
4,
5,
6,
6,
4,
0,
1,
2,
2,
2,
4,
1,
0,
3,
0,
3,
1,
1,
0,
1,
0,
0,
0,
0,
0,
2,
1,
0,
0,
0,
0,
0,
0,
0,
1,
1,
0,
1,
1,
0,
0,
0,
0,
1,
0,
0,
0,
0,
0,
0,
0,
0,
0,
0,
0,
0,
0,
0,
0,
0,
0,
0,
0,
0,
0,
0,
0,
0,
0,
0,
0,
0,
0,
0,
0,
0,
0,
0,
0,
0,
0,
0,
0,
0,
0,
0,
0,
0,
0,
0,
0,
0,
0,
0,
0,
0,
0,
0,
0,
0,
0,
0,
0,
0,
0,
0,
0,
0,
0,
0,
0,
0,
0,
0,
0,
0,
0,
0,
0,
0,
0,
0,
0,
0,
0,
0,
0,
0,
0,
0,
0,
0,
0,
0,
0,
0,
0,
0,
0,
0,
0,
0,
0,
0,
0,
#ENDOFDATA   :

File: DyP5O14 std.msa
#FORMAT      : EMSA/MAS Spectral Data File
#VERSION     : 1.0
#TITLE       : DyP5O14 standard for 'N132962' detector
#NPOINTS     : 4096
#NCOLUMNS    : 1
#XUNITS      : eV
#YUNITS      : counts
#DATATYPE    : Y
#SIGNALTYPE  : EDS
#XLABEL      : Energy (eV)
#YLABEL      : Counts
#XPERCHAN -eV: 9.99778
#OFFSET   -eV: 1.69135
#CHOFFSET    : 0
#DATE        : 17-Mar-2025
#TIME        : 16:09:00
#OWNER       : Unknown
#ELEVANGLE   : 35
#BEAMKV   -kV: 15
#LIVETIME  -s: 718.616
#REALTIME  -s: 757.888
#PROBECUR -nA: 1.02671
##WORKING -mm: 15
##D2STDCMP   : DyP5O14,(O:41.3751),(P:28.6076),(Dy:30.0173)
##SIMILAR    : 2.7
#SPECTRUM    :
71,
1099,
47820,
25166,
178264,
11760,
14018,
35640,
16663,
60112,
19579,
18703,
16493,
14797,
176707,
53366,
9298,
8380,
9322,
8470,
8097,
8144,
7774,
7687,
7393,
7260,
6819,
6692,
6631,
6397,
6124,
5790,
5672,
5367,
5340,
5060,
4889,
4743,
4383,
4401,
4371,
5353,
4029,
3762,
3690,
3958,
23463,
12277,
3354,
3109,
2995,
5900,
12581,
4265,
5262,
4993,
2373,
2214,
2254,
2185,
3704,
2291,
2285,
2009,
1754,
1608,
1597,
1530,
1468,
1370,
1317,
1260,
1170,
1182,
1044,
1129,
1059,
932,
910,
879,
819,
781,
701,
707,
638,
554,
568,
544,
514,
447,
421,
373,
330,
315,
269,
252,
255,
183,
178,
185,
112,
111,
98,
70,
46,
50,
17,
6,
4,
2,
2,
2,
3,
3,
2,
3,
0,
0,
3,
1,
1,
0,
0,
1,
0,
1,
0,
1,
0,
1,
1,
1,
1,
0,
0,
0,
0,
0,
0,
0,
0,
0,
0,
0,
0,
0,
1,
0,
0,
0,
0,
1,
0,
0,
1,
0,
0,
0,
0,
1,
0,
0,
0,
0,
0,
0,
0,
0,
0,
0,
0,
0,
0,
0,
0,
0,
0,
0,
0,
0,
0,
0,
0,
0,
0,
0,
0,
0,
0,
0,
0,
0,
0,
0,
0,
0,
0,
0,
0,
0,
0,
0,
0,
0,
0,
0,
0,
0,
0,
0,
0,
0,
0,
0,
0,
0,
0,
0,
0,
0,
0,
0,
0,
0,
0,
0,
0,
0,
0,
0,
0,
0,
0,
0,
0,
0,
0,
0,
0,
0,
0,
0,
0,
0,
0,
0,
0,
0,
0,
0,
0,
0,
0,
0,
0,
0,
0,
0,
0,
0,
0,
0,
0,
0,
0,
0,
0,
0,
0,
0,
0,
0,
0,
0,
0,
0,
0,
0,
0,
0,
0,
0,
0,
0,
0,
0,
0,
0,
0,
0,
0,
0,
0,
0,
#ENDOFDATA   :

File: Er std.msa
#FORMAT      : EMSA/MAS Spectral Data File
#VERSION     : 1.0
#TITLE       : Er standard for 'N132962' detector
#NPOINTS     : 4096
#NCOLUMNS    : 1
#XUNITS      : eV
#YUNITS      : counts
#DATATYPE    : Y
#SIGNALTYPE  : EDS
#XLABEL      : Energy (eV)
#YLABEL      : Counts
#XPERCHAN -eV: 9.99778
#OFFSET   -eV: 1.69135
#CHOFFSET    : 0
#DATE        : 25-Sep-2025
#TIME        : 17:30:00
#OWNER       : Unknown
#ELEVANGLE   : 35
#BEAMKV   -kV: 15
#LIVETIME  -s: 1440.31
#REALTIME  -s: 1546.62
#PROBECUR -nA: 1.20749
##WORKING -mm: 15
##D2STDCMP   : Er,(Er:100.0000)
##SIMILAR    : 15.1
#SPECTRUM    :
136,
4620,
86795,
63012,
217819,
145620,
56639,
66099,
156482,
71020,
597297,
49254,
55702,
48365,
33566,
31743,
34605,
35416,
32628,
33214,
32407,
31839,
31298,
31507,
30557,
30024,
29374,
28368,
27475,
26670,
26017,
25035,
26736,
23992,
23381,
22916,
21989,
21866,
20697,
19924,
19859,
19074,
18574,
19191,
23982,
17387,
16956,
16247,
16211,
82115,
116860,
15619,
13697,
13371,
13237,
30219,
65491,
21118,
29402,
23545,
10555,
9190,
8974,
9141,
10908,
16714,
8795,
10424,
8175,
7475,
6999,
6419,
6315,
6033,
5843,
5723,
5463,
5179,
4877,
4673,
4466,
4219,
3971,
3809,
3637,
3356,
3259,
2961,
2838,
2719,
2453,
2239,
2080,
1858,
1771,
1532,
1438,
1388,
1207,
1036,
885,
782,
662,
522,
394,
282,
169,
71,
34,
35,
17,
21,
21,
14,
28,
17,
11,
15,
9,
10,
10,
22,
12,
16,
15,
18,
15,
7,
5,
11,
11,
8,
7,
5,
9,
3,
4,
6,
6,
6,
5,
4,
7,
2,
6,
5,
2,
3,
3,
5,
6,
2,
3,
1,
3,
1,
3,
0,
1,
2,
0,
0,
3,
1,
0,
0,
0,
0,
1,
0,
1,
0,
0,
0,
0,
0,
1,
0,
1,
0,
0,
0,
0,
0,
0,
0,
0,
1,
0,
0,
0,
0,
0,
0,
0,
0,
0,
0,
0,
0,
0,
0,
0,
0,
0,
0,
0,
0,
0,
0,
0,
0,
0,
0,
0,
0,
0,
0,
0,
0,
0,
0,
0,
0,
0,
0,
0,
0,
0,
0,
0,
0,
0,
0,
0,
0,
0,
0,
0,
0,
0,
0,
0,
0,
0,
0,
0,
0,
0,
0,
0,
0,
0,
0,
0,
0,
0,
0,
0,
0,
0,
0,
0,
0,
0,
0,
0,
0,
0,
0,
0,
0,
0,
0,
0,
0,
0,
0,
0,
0,
0,
0,
0,
0,
0,
0,
0,
0,
0,
0,
0,
0,
0,
0,
#ENDOFDATA   :

File: ErP5O14 std.msa
#FORMAT      : EMSA/MAS Spectral Data File
#VERSION     : 1.0
#TITLE       : ErP5O14 standard for 'N132962' detector
#NPOINTS     : 4096
#NCOLUMNS    : 1
#XUNITS      : eV
#YUNITS      : counts
#DATATYPE    : Y
#SIGNALTYPE  : EDS
#XLABEL      : Energy (eV)
#YLABEL      : Counts
#XPERCHAN -eV: 9.99778
#OFFSET   -eV: 1.69135
#CHOFFSET    : 0
#DATE        : 17-Mar-2025
#TIME        : 15:59:00
#OWNER       : Unknown
#ELEVANGLE   : 35
#BEAMKV   -kV: 15
#LIVETIME  -s: 959.0286
#REALTIME  -s: 1012
#PROBECUR -nA: 1.0242
##WORKING -mm: 15
##D2STDCMP   : ErP5O14,(O:41.0145),(P:28.3583),(Er:30.6271)
##SIMILAR    : 2.6
#SPECTRUM    :
92,
1523,
65997,
32948,
227893,
15719,
18819,
21743,
40593,
23952,
169864,
21772,
23221,
23167,
230631,
70185,
12752,
11572,
12743,
11242,
10924,
10835,
10656,
10240,
9874,
9878,
9385,
8958,
8795,
8687,
8076,
7934,
7684,
7442,
7040,
6707,
6550,
6599,
6190,
5997,
5748,
5649,
5430,
5410,
6273,
4908,
5030,
4490,
4611,
16563,
23237,
4161,
3788,
3771,
3617,
6707,
13150,
4733,
6339,
5349,
2827,
2573,
2486,
2526,
2765,
3725,
2340,
2527,
2148,
1910,
1871,
1752,
1601,
1590,
1583,
1462,
1337,
1278,
1262,
1160,
1117,
1098,
1015,
918,
937,
803,
765,
726,
660,
615,
503,
501,
489,
454,
386,
361,
288,
259,
238,
216,
186,
135,
124,
95,
67,
50,
17,
5,
2,
2,
2,
4,
1,
1,
2,
3,
4,
2,
2,
2,
0,
2,
0,
1,
1,
2,
4,
1,
1,
0,
1,
1,
1,
1,
0,
0,
1,
1,
1,
0,
0,
1,
0,
1,
0,
0,
1,
0,
0,
0,
1,
0,
0,
0,
0,
0,
0,
0,
0,
0,
0,
0,
0,
0,
0,
0,
0,
0,
0,
0,
0,
0,
0,
0,
0,
0,
0,
0,
0,
0,
0,
0,
0,
0,
0,
0,
0,
0,
0,
0,
0,
0,
0,
0,
0,
0,
0,
0,
0,
0,
0,
0,
0,
0,
0,
0,
0,
0,
0,
0,
0,
0,
0,
0,
0,
0,
0,
0,
0,
0,
0,
0,
0,
0,
0,
0,
0,
0,
0,
0,
0,
0,
0,
0,
0,
0,
0,
0,
0,
0,
0,
0,
0,
0,
0,
0,
0,
0,
0,
0,
0,
0,
0,
0,
0,
0,
0,
0,
0,
0,
0,
0,
0,
0,
0,
0,
0,
0,
0,
0,
0,
0,
0,
0,
0,
0,
0,
0,
0,
0,
0,
0,
0,
0,
0,
0,
0,
0,
0,
0,
0,
0,
0,
0,
#ENDOFDATA   :

File: EuF3 std.msa
#FORMAT      : EMSA/MAS Spectral Data File
#VERSION     : 1.0
#TITLE       : EuF3 standard for 'N132962' detector
#NPOINTS     : 4096
#NCOLUMNS    : 1
#XUNITS      : eV
#YUNITS      : counts
#DATATYPE    : Y
#SIGNALTYPE  : EDS
#XLABEL      : Energy (eV)
#YLABEL      : Counts
#XPERCHAN -eV: 9.99778
#OFFSET   -eV: 1.69135
#CHOFFSET    : 0
#DATE        : 27-Sep-2025
#TIME        : 20:06:00
#OWNER       : Unknown
#ELEVANGLE   : 35
#BEAMKV   -kV: 15
#LIVETIME  -s: 1441.13
#REALTIME  -s: 1554.23
#PROBECUR -nA: 1.21162
##WORKING -mm: 15
##D2STDCMP   : EuF3,(F:27.2758),(Eu:72.7242)
##SIMILAR    : 7.0
#SPECTRUM    :
158,
3777,
90719,
61613,
91739,
826865,
178009,
66500,
309744,
40294,
46183,
39841,
35120,
37090,
32825,
33237,
33879,
34286,
33772,
33822,
32968,
32645,
31586,
30994,
30223,
29740,
28489,
28331,
27293,
27567,
25800,
24959,
24363,
23542,
23001,
22074,
22095,
32203,
20685,
20050,
20290,
76533,
232081,
20018,
17125,
21415,
129658,
45804,
23746,
55762,
14879,
12850,
12929,
24150,
17659,
14224,
13964,
11077,
10238,
9514,
9189,
8956,
8844,
8452,
8099,
7992,
7509,
7360,
7084,
7061,
6700,
6411,
6076,
5851,
5754,
5530,
5276,
5001,
4676,
4526,
4459,
4100,
3812,
3709,
3530,
3296,
3161,
2896,
2794,
2506,
2357,
2158,
2093,
1883,
1680,
1596,
1499,
1237,
1143,
1033,
872,
740,
627,
542,
403,
283,
151,
60,
19,
14,
19,
16,
23,
9,
16,
16,
10,
21,
14,
11,
9,
10,
17,
17,
18,
10,
15,
14,
7,
9,
6,
10,
6,
8,
8,
8,
5,
10,
7,
9,
4,
3,
1,
2,
8,
3,
1,
2,
0,
4,
1,
2,
3,
1,
3,
3,
0,
0,
2,
2,
0,
0,
0,
1,
0,
0,
0,
1,
2,
1,
0,
1,
0,
1,
1,
0,
0,
0,
0,
0,
0,
0,
0,
0,
0,
0,
1,
0,
0,
0,
0,
0,
0,
0,
0,
0,
0,
0,
1,
0,
0,
0,
0,
0,
0,
0,
0,
0,
0,
0,
0,
0,
0,
0,
0,
0,
0,
0,
0,
0,
0,
0,
0,
0,
0,
0,
0,
0,
0,
0,
0,
0,
0,
0,
0,
0,
0,
0,
0,
0,
0,
0,
0,
0,
0,
0,
0,
0,
0,
0,
0,
0,
0,
0,
0,
0,
0,
0,
0,
0,
0,
0,
0,
0,
0,
0,
0,
0,
0,
0,
0,
0,
0,
0,
0,
0,
0,
0,
0,
0,
0,
0,
0,
0,
0,
0,
0,
0,
0,
0,
0,
0,
0,
0,
#ENDOFDATA   :