Folder: spex_quant/N132962/Standards/15 keV (part 3)

File: EuP5O14 std.msa
#FORMAT      : EMSA/MAS Spectral Data File
#VERSION     : 1.0
#TITLE       : EuP5O14 standard for 'N132962' detector
#NPOINTS     : 4096
#NCOLUMNS    : 1
#XUNITS      : eV
#YUNITS      : counts
#DATATYPE    : Y
#SIGNALTYPE  : EDS
#XLABEL      : Energy (eV)
#YLABEL      : Counts
#XPERCHAN -eV: 9.99778
#OFFSET   -eV: 1.69135
#CHOFFSET    : 0
#DATE        : 17-Mar-2025
#TIME        : 16:31:00
#OWNER       : Unknown
#ELEVANGLE   : 35
#BEAMKV   -kV: 15
#LIVETIME  -s: 1438.35
#REALTIME  -s: 1517.08
#PROBECUR -nA: 1.02671
##WORKING -mm: 15
##D2STDCMP   : EuP5O14,(O:42.1963),(P:29.1755),(Eu:28.6282)
##SIMILAR    : 2.3
#SPECTRUM    :
143,
2288,
95744,
51879,
385454,
23729,
59399,
31268,
134370,
28155,
31044,
28594,
27596,
29553,
358601,
108865,
18911,
17048,
19140,
16664,
15939,
15804,
15152,
14760,
14542,
13894,
13294,
12839,
12398,
12547,
11291,
10990,
10753,
10299,
10109,
9624,
9588,
12067,
8862,
8509,
8463,
22824,
64667,
8000,
7076,
8205,
36447,
14213,
8356,
16822,
6013,
5408,
5224,
8258,
6161,
5511,
5323,
4413,
4160,
3906,
3706,
3492,
3460,
3385,
3263,
3056,
2915,
2847,
2717,
2585,
2520,
2414,
2332,
2128,
2133,
2003,
1929,
1808,
1730,
1656,
1523,
1471,
1358,
1283,
1147,
1108,
1086,
1054,
953,
857,
761,
760,
697,
597,
571,
508,
420,
418,
346,
265,
251,
201,
174,
133,
91,
71,
35,
13,
5,
4,
3,
7,
3,
1,
3,
0,
1,
2,
1,
0,
1,
2,
2,
2,
0,
1,
2,
1,
3,
1,
1,
5,
0,
1,
1,
1,
1,
2,
0,
0,
0,
0,
1,
1,
0,
1,
0,
0,
0,
0,
0,
0,
0,
0,
0,
1,
0,
0,
1,
0,
0,
0,
0,
0,
0,
0,
0,
0,
0,
0,
0,
0,
0,
0,
0,
0,
0,
0,
0,
0,
0,
0,
0,
0,
0,
0,
0,
0,
0,
0,
0,
0,
0,
0,
0,
0,
0,
0,
0,
0,
0,
0,
0,
0,
0,
0,
0,
0,
0,
0,
0,
0,
0,
0,
0,
0,
0,
0,
0,
0,
0,
0,
0,
0,
0,
0,
0,
0,
0,
0,
0,
0,
0,
0,
0,
0,
0,
0,
0,
0,
0,
0,
0,
0,
0,
0,
0,
0,
0,
0,
0,
0,
0,
0,
0,
0,
0,
0,
0,
0,
0,
0,
0,
0,
0,
0,
0,
0,
0,
0,
0,
0,
0,
0,
0,
0,
0,
0,
0,
0,
0,
0,
0,
0,
0,
0,
0,
0,
0,
0,
0,
0,
0,
0,
#ENDOFDATA   :

File: Fe std.msa
#FORMAT      : EMSA/MAS Spectral Data File
#VERSION     : 1.0
#TITLE       : Fe standard for 'N132962' detector
#NPOINTS     : 4096
#NCOLUMNS    : 1
#XUNITS      : eV
#YUNITS      : counts
#DATATYPE    : Y
#SIGNALTYPE  : EDS
#XLABEL      : Energy (eV)
#YLABEL      : Counts
#XPERCHAN -eV: 9.99778
#OFFSET   -eV: 1.69135
#CHOFFSET    : 0
#DATE        : 25-Sep-2025
#TIME        : 22:32:00
#OWNER       : Unknown
#ELEVANGLE   : 35
#BEAMKV   -kV: 15
#LIVETIME  -s: 1919.63
#REALTIME  -s: 2057.75
#PROBECUR -nA: 1.20962
##WORKING -mm: 15
##D2STDCMP   : Fe,(Fe:100.0000)
##SIMILAR    : 1.1
#SPECTRUM    :
184,
3352,
66132,
78172,
310530,
1562140,
28578,
28728,
34548,
41398,
46045,
44911,
47950,
49271,
43651,
43012,
42914,
41771,
40545,
39237,
37966,
36790,
35288,
34114,
32475,
31396,
29816,
28852,
27814,
26417,
25485,
24659,
25312,
26027,
22568,
21416,
20331,
20132,
19467,
18689,
17882,
17109,
16662,
16357,
18192,
235795,
710768,
21436,
14212,
16359,
94191,
54092,
9902,
9555,
9387,
9182,
8882,
8592,
8296,
7944,
7929,
7449,
7118,
7041,
7003,
6514,
6245,
6161,
5655,
5705,
5438,
5212,
4883,
4724,
4613,
4428,
4058,
3933,
3675,
3557,
3390,
3166,
2986,
2735,
2624,
2463,
2380,
2118,
2040,
1891,
1709,
2022,
1812,
1372,
1252,
1120,
1116,
963,
851,
728,
626,
526,
433,
348,
279,
210,
126,
47,
22,
13,
22,
23,
14,
14,
15,
9,
7,
16,
16,
17,
10,
30,
9,
16,
18,
7,
9,
12,
11,
10,
7,
3,
8,
7,
5,
7,
1,
1,
4,
6,
4,
4,
3,
3,
3,
3,
4,
3,
0,
1,
4,
4,
1,
0,
1,
1,
0,
1,
0,
1,
0,
1,
0,
1,
0,
0,
0,
1,
0,
0,
0,
0,
0,
1,
0,
0,
0,
0,
0,
0,
0,
0,
0,
0,
0,
0,
0,
0,
0,
0,
0,
0,
0,
0,
0,
0,
0,
0,
0,
0,
0,
0,
0,
0,
0,
0,
0,
0,
0,
0,
0,
0,
0,
0,
0,
0,
0,
0,
0,
0,
0,
0,
0,
0,
0,
0,
0,
0,
0,
0,
0,
0,
0,
0,
0,
0,
0,
0,
0,
0,
0,
0,
0,
0,
0,
0,
0,
0,
0,
0,
0,
0,
0,
0,
0,
0,
0,
0,
0,
0,
0,
0,
0,
0,
0,
0,
0,
0,
0,
0,
0,
0,
0,
0,
0,
0,
0,
0,
0,
0,
0,
0,
0,
0,
0,
0,
0,
0,
0,
0,
0,
0,
0,
0,
#ENDOFDATA   :

File: FeS2 std.msa
#FORMAT      : EMSA/MAS Spectral Data File
#VERSION     : 1.0
#TITLE       : FeS2 standard for 'N132962' detector
#NPOINTS     : 4096
#NCOLUMNS    : 1
#XUNITS      : eV
#YUNITS      : counts
#DATATYPE    : Y
#SIGNALTYPE  : EDS
#XLABEL      : Energy (eV)
#YLABEL      : Counts
#XPERCHAN -eV: 9.99778
#OFFSET   -eV: 1.69135
#CHOFFSET    : 0
#DATE        : 27-Sep-2025
#TIME        : 18:36:00
#OWNER       : Unknown
#ELEVANGLE   : 35
#BEAMKV   -kV: 15
#LIVETIME  -s: 1919.7
#REALTIME  -s: 2070.09
#PROBECUR -nA: 1.20973
##WORKING -mm: 15
##D2STDCMP   : FeS2,(S:53.4489),(Fe:46.5511)
##SIMILAR    : 1.2
#SPECTRUM    :
204,
8393,
58602,
31586,
155012,
692615,
38906,
43200,
44047,
47757,
51516,
52259,
52653,
53046,
47115,
51334,
737359,
564560,
101738,
26075,
25389,
26647,
25258,
24245,
23161,
22480,
22074,
21387,
20428,
19700,
19115,
18479,
18012,
22923,
17417,
15887,
15193,
14836,
14623,
13939,
13188,
13071,
12373,
12131,
12879,
104999,
303406,
13845,
10520,
11154,
43917,
25767,
8119,
7861,
7606,
7435,
7001,
6957,
6699,
6433,
6252,
5970,
6795,
5835,
5290,
5027,
4863,
4714,
4574,
4347,
4068,
3947,
3705,
3562,
3347,
3098,
3085,
2888,
2726,
2650,
2529,
2320,
2287,
2063,
1962,
1849,
1656,
1596,
1477,
1330,
1297,
1195,
1100,
953,
845,
809,
737,
648,
585,
511,
418,
333,
294,
216,
197,
131,
76,
31,
11,
13,
5,
5,
7,
16,
5,
10,
7,
8,
3,
4,
4,
4,
10,
4,
10,
3,
6,
7,
1,
4,
4,
5,
3,
3,
0,
3,
5,
2,
2,
1,
1,
1,
2,
0,
1,
0,
0,
0,
0,
0,
0,
0,
0,
0,
0,
1,
0,
1,
0,
0,
0,
0,
0,
0,
0,
0,
0,
0,
0,
0,
0,
0,
0,
0,
0,
0,
0,
0,
0,
0,
0,
0,
0,
0,
0,
0,
0,
0,
0,
0,
0,
0,
0,
0,
0,
0,
0,
0,
0,
0,
0,
0,
0,
0,
0,
0,
0,
0,
0,
0,
0,
0,
0,
0,
0,
0,
0,
0,
0,
0,
0,
0,
0,
0,
0,
0,
0,
0,
0,
0,
0,
0,
0,
0,
0,
0,
0,
0,
0,
0,
0,
0,
0,
0,
0,
0,
0,
0,
0,
0,
0,
0,
0,
0,
0,
0,
0,
0,
0,
0,
0,
0,
0,
0,
0,
0,
0,
0,
0,
0,
0,
0,
0,
0,
0,
0,
0,
0,
0,
0,
0,
0,
0,
0,
0,
0,
0,
0,
0,
0,
0,
0,
0,
0,
#ENDOFDATA   :

File: FeSi2 std.msa
#FORMAT      : EMSA/MAS Spectral Data File
#VERSION     : 1.0
#TITLE       : FeSi2 standard for 'N132962' detector
#NPOINTS     : 4096
#NCOLUMNS    : 1
#XUNITS      : eV
#YUNITS      : counts
#DATATYPE    : Y
#SIGNALTYPE  : EDS
#XLABEL      : Energy (eV)
#YLABEL      : Counts
#XPERCHAN -eV: 9.99778
#OFFSET   -eV: 1.69135
#CHOFFSET    : 0
#DATE        : 27-Sep-2025
#TIME        : 18:57:00
#OWNER       : Unknown
#ELEVANGLE   : 35
#BEAMKV   -kV: 15
#LIVETIME  -s: 1919.35
#REALTIME  -s: 2080.915
#PROBECUR -nA: 1.21052
##WORKING -mm: 15
##D2STDCMP   : FeSi2,(Si:50.1451),(Fe:49.8549)
##SIMILAR    : 1.2
#SPECTRUM    :
203,
2160,
60043,
37838,
122988,
931180,
37875,
42272,
43435,
48075,
53140,
62131,
1019362,
445868,
27756,
27566,
28409,
31018,
28610,
27122,
26138,
25885,
24812,
23990,
23593,
30196,
21815,
20685,
19912,
19081,
18445,
17691,
17094,
17606,
16162,
15552,
14865,
14280,
13929,
13450,
13021,
12388,
11953,
11602,
12361,
105214,
304607,
13074,
9834,
10480,
43211,
26085,
7600,
7467,
7094,
6958,
6545,
6509,
7612,
6196,
5693,
5431,
5291,
5190,
4916,
4639,
4628,
4321,
4093,
3909,
3870,
3709,
3492,
3306,
3084,
3118,
2923,
2682,
2610,
2412,
2337,
2104,
1962,
1957,
1846,
1681,
1547,
1479,
1334,
1256,
1169,
1089,
1044,
903,
772,
734,
710,
594,
543,
495,
369,
347,
268,
225,
158,
128,
69,
28,
14,
7,
8,
10,
11,
9,
7,
9,
11,
6,
6,
2,
2,
7,
9,
5,
2,
4,
1,
3,
2,
1,
0,
4,
5,
4,
1,
2,
0,
2,
2,
2,
3,
4,
1,
1,
0,
1,
0,
1,
0,
0,
0,
1,
1,
0,
0,
0,
0,
3,
0,
1,
0,
0,
0,
1,
0,
0,
0,
0,
1,
1,
0,
0,
0,
0,
0,
0,
2,
1,
0,
0,
0,
0,
0,
0,
0,
0,
0,
0,
0,
0,
0,
0,
0,
0,
0,
0,
0,
0,
0,
0,
0,
0,
0,
0,
0,
0,
0,
0,
0,
0,
0,
0,
0,
0,
0,
0,
0,
0,
0,
0,
0,
0,
0,
0,
0,
0,
0,
0,
0,
0,
0,
0,
0,
0,
0,
0,
0,
0,
0,
0,
0,
0,
0,
0,
0,
0,
0,
0,
0,
0,
0,
0,
0,
0,
0,
0,
0,
0,
0,
0,
0,
0,
0,
0,
0,
0,
0,
0,
0,
0,
0,
0,
0,
0,
0,
0,
0,
0,
0,
0,
0,
0,
0,
0,
0,
0,
0,
0,
0,
0,
0,
0,
0,
0,
#ENDOFDATA   :

File: GaP std.msa
#FORMAT      : EMSA/MAS Spectral Data File
#VERSION     : 1.0
#TITLE       : GaP standard for 'N132962' detector
#NPOINTS     : 4096
#NCOLUMNS    : 1
#XUNITS      : eV
#YUNITS      : counts
#DATATYPE    : Y
#SIGNALTYPE  : EDS
#XLABEL      : Energy (eV)
#YLABEL      : Counts
#XPERCHAN -eV: 9.99778
#OFFSET   -eV: 1.69135
#CHOFFSET    : 0
#DATE        : 27-Sep-2025
#TIME        : 18:04:00
#OWNER       : Unknown
#ELEVANGLE   : 35
#BEAMKV   -kV: 15
#LIVETIME  -s: 2158.83
#REALTIME  -s: 2360.6
#PROBECUR -nA: 1.20959
##WORKING -mm: 15
##D2STDCMP   : GaP,(P:30.7594),(Ga:69.2406)
##SIMILAR    : 1.0
#SPECTRUM    :
205,
3173,
110061,
44938,
70147,
90899,
111601,
366091,
3463111,
46563,
42693,
46507,
51564,
58007,
675771,
204823,
49495,
36556,
36375,
35983,
35658,
35456,
40175,
34334,
31744,
30957,
29958,
29193,
28370,
28304,
26569,
25714,
24547,
23788,
22947,
22202,
20969,
20388,
19775,
19420,
18713,
17699,
17273,
16639,
15959,
15577,
15206,
14466,
13964,
13394,
13045,
12524,
12088,
11797,
11375,
10733,
10236,
10162,
9553,
9399,
8923,
8680,
8623,
8104,
7986,
27961,
155012,
23510,
6587,
6306,
6137,
5930,
6878,
22949,
12415,
4627,
4312,
4037,
3998,
3644,
3772,
3555,
3244,
2931,
2826,
2607,
2494,
2342,
2179,
2007,
1850,
1742,
1593,
1443,
1337,
1233,
1088,
940,
930,
730,
609,
539,
468,
390,
257,
199,
107,
43,
17,
20,
12,
21,
11,
12,
15,
10,
4,
8,
9,
9,
4,
6,
14,
6,
9,
11,
8,
6,
2,
3,
4,
10,
19,
8,
3,
7,
2,
3,
5,
7,
4,
4,
4,
1,
3,
0,
3,
2,
2,
1,
1,
3,
0,
0,
2,
1,
0,
0,
0,
1,
0,
1,
0,
2,
1,
0,
1,
1,
0,
0,
0,
0,
0,
0,
1,
1,
1,
0,
0,
0,
0,
0,
0,
0,
0,
0,
0,
0,
0,
0,
0,
0,
0,
0,
0,
0,
0,
0,
0,
0,
0,
0,
0,
0,
0,
0,
0,
0,
0,
0,
0,
0,
0,
0,
0,
0,
0,
0,
0,
0,
0,
0,
0,
0,
0,
0,
0,
0,
0,
0,
0,
0,
0,
0,
0,
0,
0,
0,
0,
0,
0,
0,
0,
0,
0,
0,
0,
0,
0,
0,
0,
0,
0,
0,
0,
0,
0,
0,
0,
0,
0,
0,
0,
0,
0,
0,
0,
0,
0,
0,
0,
0,
0,
0,
0,
0,
0,
0,
0,
0,
0,
0,
0,
0,
0,
0,
0,
0,
0,
0,
0,
0,
0,
0,
#ENDOFDATA   :

File: Gd std.msa
#FORMAT      : EMSA/MAS Spectral Data File
#VERSION     : 1.0
#TITLE       : Gd standard for 'N132962' detector
#NPOINTS     : 4096
#NCOLUMNS    : 1
#XUNITS      : eV
#YUNITS      : counts
#DATATYPE    : Y
#SIGNALTYPE  : EDS
#XLABEL      : Energy (eV)
#YLABEL      : Counts
#XPERCHAN -eV: 9.99778
#OFFSET   -eV: 1.69135
#CHOFFSET    : 0
#DATE        : 26-Sep-2025
#TIME        : 17:11:00
#OWNER       : Unknown
#ELEVANGLE   : 35
#BEAMKV   -kV: 15
#LIVETIME  -s: 1680.26
#REALTIME  -s: 1826.2
#PROBECUR -nA: 1.21578
##WORKING -mm: 15
##D2STDCMP   : Gd,(Gd:100.0000)
##SIMILAR    : 3.7
#SPECTRUM    :
158,
4931,
98817,
79945,
136850,
124612,
159673,
147092,
209835,
166473,
88784,
68489,
49157,
49742,
43830,
45844,
47063,
48141,
47776,
48415,
47735,
47117,
46851,
46263,
45065,
44151,
43450,
42258,
41379,
40476,
40071,
40062,
37176,
36496,
35325,
34756,
33992,
32837,
45037,
35769,
30639,
29864,
36220,
382545,
100872,
27726,
27744,
43106,
198028,
57331,
44963,
74855,
21522,
19137,
19377,
30342,
32063,
19787,
23083,
16059,
15647,
14116,
13715,
13327,
13099,
12638,
12267,
11676,
11497,
10940,
10677,
10562,
10162,
9708,
9333,
8877,
8752,
8399,
7949,
7603,
7113,
6783,
6650,
6113,
5966,
5737,
5379,
5037,
4673,
4500,
4229,
3994,
3538,
3210,
3141,
2743,
2489,
2237,
2095,
1785,
1573,
1372,
1133,
889,
732,
487,
311,
130,
47,
50,
47,
42,
36,
34,
38,
33,
50,
28,
24,
25,
28,
35,
32,
34,
22,
22,
34,
20,
17,
18,
24,
20,
16,
16,
20,
18,
13,
19,
12,
12,
10,
13,
10,
12,
13,
9,
7,
5,
8,
6,
6,
8,
5,
4,
5,
7,
1,
1,
4,
2,
3,
1,
2,
1,
1,
1,
1,
1,
1,
1,
4,
0,
0,
2,
0,
0,
1,
0,
0,
0,
0,
0,
1,
1,
1,
0,
2,
0,
1,
1,
0,
0,
0,
0,
0,
0,
0,
0,
0,
0,
0,
0,
0,
0,
0,
0,
1,
0,
0,
0,
0,
0,
0,
0,
0,
0,
0,
0,
0,
0,
0,
0,
0,
0,
0,
0,
0,
0,
0,
0,
0,
0,
0,
0,
0,
0,
0,
0,
0,
0,
0,
0,
0,
0,
0,
0,
0,
0,
0,
0,
0,
0,
0,
0,
0,
0,
0,
0,
0,
0,
0,
0,
0,
0,
0,
0,
0,
0,
0,
0,
0,
0,
0,
0,
0,
0,
0,
0,
0,
0,
0,
0,
0,
0,
0,
0,
0,
0,
0,
0,
0,
0,
0,
0,
#ENDOFDATA   :

File: GdP5O14 std.msa
#FORMAT      : EMSA/MAS Spectral Data File
#VERSION     : 1.0
#TITLE       : GdP5O14 standard for 'N132962' detector
#NPOINTS     : 4096
#NCOLUMNS    : 1
#XUNITS      : eV
#YUNITS      : counts
#DATATYPE    : Y
#SIGNALTYPE  : EDS
#XLABEL      : Energy (eV)
#YLABEL      : Counts
#XPERCHAN -eV: 9.99778
#OFFSET   -eV: 1.69135
#CHOFFSET    : 0
#DATE        : 17-Mar-2025
#TIME        : 16:22:00
#OWNER       : Unknown
#ELEVANGLE   : 35
#BEAMKV   -kV: 15
#LIVETIME  -s: 962.106
#REALTIME  -s: 1014.72
#PROBECUR -nA: 1.02671
##WORKING -mm: 15
##D2STDCMP   : GdP5O14,(O:41.7803),(P:28.8878),(Gd:29.3320)
##SIMILAR    : 1.3
#SPECTRUM    :
83,
1545,
65524,
34208,
253350,
15622,
23314,
24415,
35888,
38087,
25920,
21738,
18537,
19870,
240313,
72515,
12618,
11356,
12670,
11090,
10909,
10558,
10108,
10017,
9686,
9125,
9161,
8721,
8446,
8499,
7869,
7788,
7547,
6998,
6721,
6548,
6358,
6178,
7319,
6319,
5598,
5319,
5938,
41977,
12706,
4689,
4707,
6286,
22284,
7518,
6130,
9431,
3543,
3370,
3245,
4423,
4555,
3292,
3561,
2726,
2689,
2425,
2292,
2260,
2141,
2188,
2004,
1953,
1856,
1770,
1720,
1615,
1568,
1442,
1382,
1389,
1262,
1201,
1181,
1029,
1084,
1003,
901,
841,
828,
774,
735,
677,
599,
578,
518,
479,
430,
413,
406,
321,
300,
273,
240,
188,
164,
125,
120,
92,
75,
48,
17,
3,
2,
1,
1,
1,
2,
1,
3,
2,
0,
2,
2,
1,
0,
0,
2,
1,
0,
0,
0,
0,
1,
0,
0,
1,
0,
1,
1,
0,
0,
0,
1,
0,
0,
0,
0,
1,
0,
0,
0,
0,
0,
0,
0,
0,
0,
0,
0,
0,
0,
0,
0,
0,
0,
0,
0,
0,
0,
0,
0,
0,
0,
0,
0,
0,
0,
0,
0,
0,
0,
0,
0,
0,
0,
0,
0,
0,
0,
0,
0,
0,
0,
1,
0,
0,
0,
0,
0,
0,
0,
0,
0,
0,
0,
0,
0,
0,
0,
0,
0,
0,
0,
0,
0,
0,
0,
0,
0,
0,
0,
0,
0,
0,
0,
0,
0,
0,
0,
0,
0,
0,
0,
0,
0,
0,
0,
0,
0,
0,
0,
0,
0,
0,
0,
0,
0,
0,
0,
0,
0,
0,
0,
0,
0,
0,
0,
0,
0,
0,
0,
0,
0,
0,
0,
0,
0,
0,
0,
0,
0,
0,
0,
0,
0,
0,
0,
0,
0,
0,
0,
0,
0,
0,
0,
0,
0,
0,
0,
0,
0,
0,
0,
0,
0,
0,
0,
0,
#ENDOFDATA   :

File: Ge std.msa
#FORMAT      : EMSA/MAS Spectral Data File
#VERSION     : 1.0
#TITLE       : Ge standard for 'N132962' detector
#NPOINTS     : 4096
#NCOLUMNS    : 1
#XUNITS      : eV
#YUNITS      : counts
#DATATYPE    : Y
#SIGNALTYPE  : EDS
#XLABEL      : Energy (eV)
#YLABEL      : Counts
#XPERCHAN -eV: 9.99778
#OFFSET   -eV: 1.69135
#CHOFFSET    : 0
#DATE        : 26-Sep-2025
#TIME        : 23:31:00
#OWNER       : Unknown
#ELEVANGLE   : 35
#BEAMKV   -kV: 15
#LIVETIME  -s: 1912.62
#REALTIME  -s: 2115.39
#PROBECUR -nA: 1.21571
##WORKING -mm: 15
##D2STDCMP   : Ge,(Ge:100.0000)
##SIMILAR    : 1.2
#SPECTRUM    :
201,
2716,
50745,
45830,
74687,
93764,
105626,
189315,
842283,
1038198,
34107,
33984,
38837,
41832,
37714,
39558,
43425,
64052,
39531,
39004,
38158,
37889,
36909,
36081,
35049,
34026,
33285,
32353,
31198,
30683,
29438,
28323,
27609,
26522,
25739,
24731,
24125,
23220,
22611,
22272,
20759,
20321,
19591,
18760,
18406,
18126,
19240,
16251,
15792,
15173,
14999,
14380,
13874,
13683,
12863,
12270,
12117,
11450,
11155,
10720,
10194,
10028,
9461,
9293,
8877,
8413,
8101,
7960,
7769,
9578,
90538,
88313,
8219,
6131,
5853,
5611,
5567,
5891,
18996,
14897,
4614,
3761,
3671,
3522,
3265,
3134,
2908,
2934,
2677,
2399,
2179,
2017,
1844,
1778,
1579,
1542,
1306,
1202,
1038,
977,
800,
724,
597,
458,
379,
268,
170,
67,
24,
16,
16,
12,
19,
18,
11,
19,
10,
15,
15,
17,
6,
15,
13,
11,
5,
9,
10,
14,
9,
5,
8,
15,
8,
5,
6,
8,
6,
7,
2,
7,
10,
18,
6,
3,
8,
4,
8,
4,
4,
5,
5,
5,
1,
4,
0,
1,
2,
1,
2,
0,
0,
3,
0,
1,
1,
0,
0,
1,
1,
1,
1,
1,
0,
0,
0,
0,
0,
0,
0,
0,
0,
0,
1,
0,
0,
0,
0,
0,
0,
0,
0,
0,
0,
0,
0,
0,
0,
0,
0,
0,
0,
0,
0,
0,
0,
0,
0,
0,
0,
0,
0,
0,
0,
0,
0,
0,
0,
0,
0,
0,
0,
0,
0,
0,
0,
0,
0,
0,
0,
0,
0,
0,
0,
0,
0,
0,
0,
0,
0,
0,
0,
0,
0,
0,
0,
0,
0,
0,
0,
0,
0,
0,
0,
0,
0,
0,
0,
0,
0,
0,
0,
0,
0,
0,
0,
0,
0,
0,
0,
0,
0,
0,
0,
0,
0,
0,
0,
0,
0,
0,
0,
0,
0,
0,
0,
0,
0,
0,
0,
0,
0,
0,
0,
0,
#ENDOFDATA   :

File: Hf std.msa
#FORMAT      : EMSA/MAS Spectral Data File
#VERSION     : 1.0
#TITLE       : Hf standard for 'N132962' detector
#NPOINTS     : 4096
#NCOLUMNS    : 1
#XUNITS      : eV
#YUNITS      : counts
#DATATYPE    : Y
#SIGNALTYPE  : EDS
#XLABEL      : Energy (eV)
#YLABEL      : Counts
#XPERCHAN -eV: 9.99778
#OFFSET   -eV: 1.69135
#CHOFFSET    : 0
#DATE        : 26-Sep-2025
#TIME        : 18:04:00
#OWNER       : Unknown
#ELEVANGLE   : 35
#BEAMKV   -kV: 15
#LIVETIME  -s: 1921.5
#REALTIME  -s: 2142.51
#PROBECUR -nA: 1.21605
##WORKING -mm: 15
##D2STDCMP   : Hf,(Hf:100.0000)
##SIMILAR    : 1.1
#SPECTRUM    :
214,
8169,
87676,
62305,
92691,
97197,
106689,
112874,
117156,
315362,
128097,
213434,
2518843,
83251,
72392,
94521,
58219,
50301,
51703,
50807,
51114,
52304,
51671,
53369,
56360,
50598,
49961,
49516,
48385,
47421,
46368,
45834,
45246,
43525,
42862,
41894,
40646,
39854,
39245,
38695,
36804,
35545,
35577,
34051,
33589,
33376,
34657,
30183,
29527,
31485,
35896,
28021,
26686,
26321,
25553,
28563,
168800,
100468,
24397,
21870,
20834,
19979,
19558,
22742,
64718,
52119,
32638,
44946,
18545,
14934,
13898,
13422,
13107,
12809,
13426,
21230,
13440,
12543,
11951,
9832,
9637,
8837,
8464,
8077,
7525,
7135,
6833,
6529,
6064,
5808,
5481,
5119,
4739,
4307,
4100,
3766,
3361,
3091,
2791,
2506,
2264,
1890,
1645,
1374,
1086,
774,
533,
205,
64,
62,
66,
58,
72,
81,
59,
53,
31,
34,
39,
29,
34,
50,
59,
42,
43,
37,
40,
38,
30,
32,
28,
32,
27,
27,
21,
25,
16,
21,
18,
21,
18,
12,
11,
24,
13,
18,
15,
9,
7,
12,
6,
9,
6,
5,
8,
9,
10,
7,
1,
3,
6,
3,
3,
0,
1,
3,
2,
0,
3,
1,
0,
3,
1,
1,
0,
2,
1,
4,
0,
0,
1,
2,
0,
0,
0,
2,
3,
0,
1,
0,
1,
0,
0,
0,
0,
0,
0,
0,
0,
0,
0,
0,
0,
0,
0,
0,
0,
0,
0,
1,
0,
0,
0,
0,
0,
0,
0,
0,
0,
0,
0,
0,
0,
0,
0,
0,
0,
0,
0,
0,
0,
0,
0,
0,
0,
0,
0,
0,
0,
0,
0,
0,
0,
0,
0,
0,
0,
0,
0,
0,
0,
0,
0,
0,
0,
0,
0,
0,
0,
0,
0,
0,
0,
0,
0,
0,
0,
0,
0,
0,
0,
0,
0,
0,
0,
0,
0,
0,
0,
0,
0,
0,
0,
0,
0,
0,
0,
0,
0,
0,
0,
0,
0,
0,
#ENDOFDATA   :

File: HgTe std.msa
#FORMAT      : EMSA/MAS Spectral Data File
#VERSION     : 1.0
#TITLE       : HgTe standard for 'N132962' detector
#NPOINTS     : 4096
#NCOLUMNS    : 1
#XUNITS      : eV
#YUNITS      : counts
#DATATYPE    : Y
#SIGNALTYPE  : EDS
#XLABEL      : Energy (eV)
#YLABEL      : Counts
#XPERCHAN -eV: 9.99778
#OFFSET   -eV: 1.69135
#CHOFFSET    : 0
#DATE        : 27-Sep-2025
#TIME        : 20:26:00
#OWNER       : Unknown
#ELEVANGLE   : 35
#BEAMKV   -kV: 15
#LIVETIME  -s: 1439.51
#REALTIME  -s: 1576.39
#PROBECUR -nA: 1.21175
##WORKING -mm: 15
##D2STDCMP   : HgTe,(Te:38.8797),(Hg:61.1203)
##SIMILAR    : 1.2
#SPECTRUM    :
138,
12443,
115154,
103569,
70171,
47436,
56617,
58101,
56109,
60361,
64279,
67379,
109428,
74648,
64564,
141571,
752329,
76731,
69460,
41507,
44680,
44902,
38288,
39068,
46823,
37978,
49413,
329046,
48555,
169312,
50671,
66328,
35256,
41037,
32883,
30774,
26721,
26427,
25980,
25249,
24814,
24408,
23993,
23734,
22862,
22639,
22277,
21104,
20650,
20035,
19499,
18959,
18209,
18172,
17609,
17029,
16478,
15848,
15686,
14965,
14822,
14230,
14689,
13486,
12839,
12347,
11994,
11420,
11064,
10707,
12062,
26215,
16166,
9460,
8885,
8508,
8295,
7838,
7483,
7200,
6984,
6505,
6447,
5958,
6837,
8944,
5783,
4876,
4584,
4100,
3841,
3486,
3414,
3169,
2856,
2650,
2397,
2236,
2101,
1964,
1558,
1389,
1103,
904,
744,
492,
318,
124,
53,
41,
39,
33,
30,
35,
25,
22,
24,
25,
23,
16,
12,
25,
24,
21,
17,
23,
8,
16,
12,
13,
15,
14,
14,
9,
16,
4,
14,
6,
9,
7,
7,
5,
12,
5,
8,
2,
4,
4,
5,
5,
2,
2,
5,
3,
7,
3,
2,
3,
1,
3,
2,
2,
2,
5,
1,
1,
0,
1,
3,
3,
2,
1,
0,
0,
0,
1,
0,
1,
0,
0,
1,
2,
0,
0,
0,
0,
0,
0,
1,
0,
1,
1,
0,
0,
0,
0,
0,
0,
0,
0,
0,
0,
0,
0,
0,
0,
0,
0,
0,
0,
1,
0,
0,
0,
0,
0,
0,
0,
0,
0,
0,
0,
0,
0,
0,
0,
0,
0,
0,
0,
0,
0,
0,
0,
0,
0,
0,
0,
0,
0,
0,
0,
0,
0,
0,
0,
0,
0,
0,
0,
0,
0,
0,
0,
0,
0,
0,
0,
0,
0,
0,
0,
0,
0,
0,
0,
0,
0,
0,
0,
0,
0,
0,
0,
0,
0,
0,
0,
0,
0,
0,
0,
0,
0,
0,
0,
0,
0,
0,
0,
0,
0,
0,
0,
#ENDOFDATA   :

File: Ho std.msa
#FORMAT      : EMSA/MAS Spectral Data File
#VERSION     : 1.0
#TITLE       : Ho standard for 'N132962' detector
#NPOINTS     : 4096
#NCOLUMNS    : 1
#XUNITS      : eV
#YUNITS      : counts
#DATATYPE    : Y
#SIGNALTYPE  : EDS
#XLABEL      : Energy (eV)
#YLABEL      : Counts
#XPERCHAN -eV: 9.99778
#OFFSET   -eV: 1.69135
#CHOFFSET    : 0
#DATE        : 26-Sep-2025
#TIME        : 17:43:00
#OWNER       : Unknown
#ELEVANGLE   : 35
#BEAMKV   -kV: 15
#LIVETIME  -s: 1679.91
#REALTIME  -s: 1828.59
#PROBECUR -nA: 1.21629
##WORKING -mm: 15
##D2STDCMP   : Ho,(Ho:100.0000)
##SIMILAR    : 2.3
#SPECTRUM    :
168,
5608,
102597,
68299,
115807,
131245,
101867,
172248,
133687,
152917,
610277,
79976,
61120,
56822,
43502,
45414,
44994,
46069,
46883,
48072,
47002,
46996,
46601,
45830,
45335,
44356,
43856,
43251,
42063,
41533,
40430,
39502,
38800,
37793,
36831,
36430,
35124,
34102,
32793,
32710,
30987,
30753,
37763,
33927,
28138,
27831,
29802,
56105,
339027,
43238,
24258,
23290,
22928,
59978,
126451,
37488,
53179,
44054,
18200,
16242,
16369,
16050,
27964,
23358,
16355,
18423,
13100,
13461,
12043,
11606,
11482,
10785,
10469,
10264,
9788,
9293,
8913,
8693,
8274,
7870,
7465,
7368,
6954,
6585,
6259,
5907,
5477,
5268,
4939,
4548,
4305,
4029,
3677,
3560,
3266,
2977,
2773,
2496,
2334,
1908,
1753,
1539,
1312,
962,
822,
572,
323,
124,
63,
63,
60,
52,
43,
55,
40,
24,
29,
31,
34,
25,
20,
53,
32,
37,
37,
29,
39,
28,
23,
18,
29,
21,
14,
11,
23,
14,
16,
23,
12,
16,
20,
13,
7,
9,
11,
11,
6,
12,
5,
8,
8,
5,
8,
6,
5,
2,
2,
3,
4,
1,
4,
1,
0,
0,
1,
2,
2,
1,
0,
0,
1,
0,
0,
0,
0,
1,
2,
1,
4,
1,
0,
0,
2,
0,
1,
0,
2,
0,
1,
0,
1,
0,
0,
1,
0,
0,
0,
0,
0,
0,
0,
0,
0,
0,
0,
0,
0,
0,
0,
0,
0,
0,
0,
0,
0,
0,
0,
0,
0,
0,
0,
0,
0,
0,
0,
0,
0,
0,
0,
0,
0,
0,
0,
0,
0,
0,
0,
0,
0,
0,
0,
0,
0,
0,
0,
0,
0,
0,
0,
0,
0,
0,
0,
0,
0,
0,
0,
0,
0,
0,
0,
0,
0,
0,
0,
0,
0,
0,
0,
0,
0,
0,
0,
0,
0,
0,
0,
0,
0,
0,
0,
0,
0,
0,
0,
0,
0,
0,
0,
0,
0,
0,
0,
0,
#ENDOFDATA   :

File: HoP5O14 std.msa
#FORMAT      : EMSA/MAS Spectral Data File
#VERSION     : 1.0
#TITLE       : HoP5O14 standard for 'N132962' detector
#NPOINTS     : 4096
#NCOLUMNS    : 1
#XUNITS      : eV
#YUNITS      : counts
#DATATYPE    : Y
#SIGNALTYPE  : EDS
#XLABEL      : Energy (eV)
#YLABEL      : Counts
#XPERCHAN -eV: 9.99778
#OFFSET   -eV: 1.69135
#CHOFFSET    : 0
#DATE        : 17-Mar-2025
#TIME        : 16:05:00
#OWNER       : Unknown
#ELEVANGLE   : 35
#BEAMKV   -kV: 15
#LIVETIME  -s: 959.051
#REALTIME  -s: 1011.88
#PROBECUR -nA: 1.02545
##WORKING -mm: 15
##D2STDCMP   : HoP5O14,(O:41.1902),(P:28.4798),(Ho:30.3301)
##SIMILAR    : 1.1
#SPECTRUM    :
99,
1468,
66250,
31635,
234547,
15708,
19092,
28293,
25205,
29500,
120081,
24108,
20332,
21302,
234622,
71663,
12659,
11472,
12627,
11276,
11045,
10633,
10471,
10321,
10172,
9680,
9482,
9033,
8827,
8809,
8197,
7820,
7653,
7219,
7122,
6865,
6476,
6355,
6209,
5851,
5580,
5575,
6175,
5749,
4936,
4977,
5000,
7657,
38168,
6259,
4032,
3921,
3856,
7674,
14618,
5244,
6690,
5895,
2996,
2966,
2807,
2627,
3890,
3343,
2538,
2715,
2239,
2150,
2017,
1903,
1825,
1722,
1618,
1515,
1493,
1458,
1336,
1310,
1217,
1216,
1114,
1060,
990,
908,
863,
831,
746,
724,
706,
596,
572,
478,
480,
444,
416,
373,
304,
277,
270,
206,
180,
168,
151,
114,
84,
48,
28,
10,
5,
3,
1,
3,
0,
2,
1,
1,
0,
0,
0,
1,
1,
0,
0,
1,
1,
1,
1,
1,
1,
2,
0,
1,
0,
0,
1,
1,
0,
0,
1,
1,
0,
0,
0,
0,
1,
0,
1,
0,
0,
0,
0,
0,
0,
0,
1,
0,
2,
0,
0,
0,
0,
0,
0,
0,
0,
0,
0,
0,
0,
0,
0,
0,
0,
0,
0,
0,
0,
0,
0,
0,
0,
0,
0,
0,
0,
0,
0,
0,
0,
0,
0,
0,
0,
0,
0,
0,
0,
0,
0,
0,
0,
0,
0,
0,
0,
0,
0,
0,
0,
0,
0,
0,
0,
0,
0,
0,
0,
0,
0,
0,
0,
0,
0,
0,
0,
0,
0,
0,
0,
0,
0,
0,
0,
0,
0,
0,
0,
0,
0,
0,
0,
0,
0,
0,
0,
0,
0,
0,
0,
0,
0,
0,
0,
0,
0,
0,
0,
0,
0,
0,
0,
0,
0,
0,
0,
0,
0,
0,
0,
0,
0,
0,
0,
0,
0,
0,
0,
0,
0,
0,
0,
0,
0,
0,
0,
0,
0,
0,
0,
0,
0,
0,
0,
0,
#ENDOFDATA   :

File: In std.msa
#FORMAT      : EMSA/MAS Spectral Data File
#VERSION     : 1.0
#TITLE       : In standard for 'N132962' detector
#NPOINTS     : 4096
#NCOLUMNS    : 1
#XUNITS      : eV
#YUNITS      : counts
#DATATYPE    : Y
#SIGNALTYPE  : EDS
#XLABEL      : Energy (eV)
#YLABEL      : Counts
#XPERCHAN -eV: 9.99778
#OFFSET   -eV: 1.69135
#CHOFFSET    : 0
#DATE        : 25-Sep-2025
#TIME        : 20:10:00
#OWNER       : Unknown
#ELEVANGLE   : 35
#BEAMKV   -kV: 15
#LIVETIME  -s: 1441.5
#REALTIME  -s: 1566.01
#PROBECUR -nA: 1.20878
##WORKING -mm: 15
##D2STDCMP   : In,(In:100.0000)
##SIMILAR    : 92.0
#SPECTRUM    :
125,
10628,
197951,
116575,
57786,
40489,
34038,
37731,
40945,
47553,
50331,
65335,
56052,
56062,
48509,
47827,
46696,
45853,
43546,
44156,
44364,
71708,
52551,
367987,
343539,
474041,
103916,
83300,
64608,
25619,
32390,
20756,
22571,
20660,
20304,
20147,
19802,
19637,
18720,
18626,
18038,
17729,
17249,
17017,
16410,
16347,
16236,
16078,
15066,
14812,
14223,
13547,
13147,
13164,
12196,
12047,
11631,
11278,
11026,
10382,
10142,
9937,
9591,
9289,
8910,
8556,
8066,
7882,
7683,
7549,
7093,
6712,
6622,
6183,
6218,
5962,
5448,
5317,
5164,
4776,
4629,
4319,
4170,
3958,
3788,
3325,
3354,
3093,
2906,
2613,
2568,
2411,
2187,
2010,
1763,
1597,
1566,
1374,
1230,
1003,
963,
777,
671,
547,
440,
311,
179,
73,
34,
21,
22,
14,
24,
16,
9,
19,
17,
13,
7,
9,
12,
9,
16,
15,
10,
18,
7,
9,
6,
3,
6,
9,
2,
6,
1,
7,
4,
5,
8,
2,
3,
2,
3,
2,
1,
4,
2,
2,
3,
2,
1,
3,
1,
1,
1,
0,
1,
4,
0,
0,
0,
0,
0,
0,
0,
0,
0,
1,
0,
0,
0,
0,
0,
0,
2,
1,
0,
1,
0,
0,
1,
0,
0,
0,
0,
0,
0,
0,
1,
1,
1,
0,
0,
0,
0,
0,
0,
1,
0,
0,
0,
0,
0,
0,
0,
0,
0,
0,
0,
0,
0,
0,
0,
0,
0,
0,
0,
0,
0,
0,
0,
0,
0,
0,
0,
0,
0,
0,
0,
0,
0,
0,
0,
0,
0,
0,
0,
0,
0,
0,
0,
0,
0,
0,
0,
0,
0,
0,
0,
0,
0,
0,
0,
0,
0,
0,
0,
0,
0,
0,
0,
0,
0,
0,
0,
0,
0,
0,
0,
0,
0,
0,
0,
0,
0,
0,
0,
0,
0,
0,
0,
0,
0,
0,
0,
0,
0,
0,
0,
0,
0,
0,
0,
0,
#ENDOFDATA   :