Folder: spex_quant/N132962/Standards/20 keV (part 3)

File: Dy std.msa
#FORMAT      : EMSA/MAS Spectral Data File
#VERSION     : 1.0
#TITLE       : Dy std
#DATE        : 20-FEB-2025
#TIME        : 13:26
#OWNER       : Unknown
#NPOINTS     : 4096
#NCOLUMNS    : 1
#XUNITS      : eV
#YUNITS      : counts
#DATATYPE    : Y
#XPERCHAN    : 9.99778
#OFFSET      : 1.69135
#BEAMKV      : 20
#SIGNALTYPE  : EDS
#ELEVANGLE   : 35
#AZIMANGLE   : 0
#LIVETIME    : 719.8913
#REALTIME    : 796.782
#PROBECUR    : 1.04644
#TAUWIND     : 0
#TDEADLYR    : 0
#TACTLYR     : 0.045
#TALWIND     : 0.025
#CHOFFSET    : 0.0
#XLABEL      : Energy (eV)
#YLABEL      : Counts
#EDSDET      : SD
##SPECIMEN   : Dy std
##D2STDCMP   : Dy,(Dy:100.0),5.0
##DET_HASH   : 12273538-fd48-a23f-0a19-f1e6fa85caef
##CALIB_HASH : 6abaa72c-aa41-8738-0be9-f592914732f3
##WORKING    : 15.0 mm
##SAMPLE     : <BulkSample id="1">\n<mOrientation id="2">\n<double>0.0</double>\n<double>0.0</double>\n<double>-1.0</double>\n</mOrientation>\n</BulkSample>
##MULTISPEC  : 1.46467
##DET_NAME   : EDAX All
##DET_MODE   : MediumLE
#SPECTRUM    :
93,
1807,
34221,
23061,
39959,
43804,
38281,
146290,
44430,
168040,
33930,
30420,
24836,
18146,
16252,
16786,
17812,
18315,
19224,
19928,
19757,
20606,
20637,
20672,
20141,
20759,
20381,
20330,
19939,
19738,
19690,
19178,
18906,
19022,
19172,
18278,
17946,
17532,
17321,
17708,
17246,
27759,
17288,
15786,
15620,
18970,
211565,
102097,
14704,
13796,
14163,
46307,
119535,
31747,
38642,
37118,
11310,
9834,
10371,
11484,
26552,
11952,
13576,
11029,
8769,
8252,
7541,
7365,
7305,
7150,
7066,
6784,
6766,
6687,
6577,
6264,
6234,
6007,
5868,
5502,
5395,
5258,
5234,
5045,
4842,
4813,
4475,
4376,
4339,
4176,
4015,
3849,
3790,
3722,
3379,
3350,
3114,
3061,
3077,
2967,
2895,
2657,
2538,
2395,
2385,
2249,
2098,
2017,
1839,
1889,
1755,
1679,
1646,
1560,
1344,
1335,
1294,
1217,
1183,
1066,
1055,
1019,
918,
823,
799,
744,
653,
649,
599,
537,
520,
445,
401,
378,
365,
285,
261,
198,
208,
147,
97,
92,
57,
31,
23,
26,
24,
14,
13,
14,
13,
13,
8,
14,
14,
12,
12,
13,
10,
7,
10,
8,
12,
10,
9,
7,
7,
5,
5,
8,
5,
6,
3,
6,
6,
7,
5,
10,
5,
8,
3,
4,
2,
4,
3,
1,
2,
3,
3,
3,
3,
2,
0,
2,
2,
2,
0,
2,
1,
2,
0,
2,
1,
0,
1,
1,
0,
1,
2,
3,
0,
0,
0,
2,
1,
1,
0,
3,
0,
1,
1,
0,
0,
0,
0,
2,
0,
0,
0,
0,
1,
1,
0,
2,
0,
0,
0,
0,
0,
0,
1,
0,
1,
0,
0,
1,
1,
0,
0,
0,
0,
0,
0,
0,
0,
0,
0,
0,
0,
0,
0,
0,
0,
0,
0,
0,
0,
0,
0,
0,
0,
0,
0,
0,
0,
0,
0,
0,
0,
0,
0,
0,
0,
0,
0,
0,
0,
0,
0,
0,
0,
0,
0,
0,
#ENDOFDATA   :

File: EuF3 std.msa
#FORMAT      : EMSA/MAS Spectral Data File
#VERSION     : 1.0
#TITLE       : EuF3 std
#DATE        : 19-MAR-2025
#TIME        : 17:25
#OWNER       : Unknown
#NPOINTS     : 4096
#NCOLUMNS    : 1
#XUNITS      : eV
#YUNITS      : counts
#DATATYPE    : Y
#XPERCHAN    : 9.99778
#OFFSET      : 1.69135
#BEAMKV      : 20
#SIGNALTYPE  : EDS
#ELEVANGLE   : 35
#AZIMANGLE   : 0
#LIVETIME    : 1199.57
#REALTIME    : 1303.14
#PROBECUR    : 1.03276
#TAUWIND     : 0
#TDEADLYR    : 0
#TACTLYR     : 0.045
#TALWIND     : 0.025
#CHOFFSET    : 0.0
#XLABEL      : Energy (eV)
#YLABEL      : Counts
#EDSDET      : SD
##SPECIMEN   : EuF3 std
##D2STDCMP   : EuF3,(F:27.2758),(Eu:72.7242)
##DET_HASH   : 12273538-fd48-a23f-0a19-f1e6fa85caef
##CALIB_HASH : 6abaa72c-aa41-8738-0be9-f592914732f3
##WORKING    : 15.0 mm
##SAMPLE     : <BulkSample id="1">\n<mOrientation id="2">\n<double>0.0</double>\n<double>0.0</double>\n<double>-1.0</double>\n</mOrientation>\n</BulkSample>
##MULTISPEC  : 2.10539
##DET_NAME   : EDAX All
##DET_MODE   : MediumLE
#SPECTRUM    :
135,
2285,
56146,
38122,
58773,
586562,
115957,
45538,
203508,
25878,
30429,
26977,
24136,
26017,
23335,
24958,
25389,
26188,
26679,
27141,
26889,
27110,
26863,
26554,
26711,
26232,
26027,
25393,
25052,
25763,
24272,
23358,
23372,
22828,
22414,
21721,
22303,
35537,
20777,
19951,
20377,
95750,
309887,
21886,
18069,
23963,
180975,
61313,
27593,
71954,
16411,
13389,
13898,
30797,
21053,
16491,
16479,
12404,
11222,
10400,
9886,
9873,
9727,
9441,
9242,
9170,
8673,
8649,
8433,
8158,
8099,
7776,
7399,
7424,
7148,
6940,
6809,
6613,
6476,
6362,
5988,
5873,
5639,
5590,
5427,
5099,
5000,
4722,
4672,
4508,
4280,
4176,
3864,
3857,
3752,
3590,
3397,
3257,
3157,
3021,
2922,
2632,
2680,
2491,
2436,
2240,
2080,
2066,
1994,
1815,
1723,
1593,
1599,
1503,
1407,
1397,
1218,
1181,
1106,
1095,
992,
1030,
875,
831,
793,
664,
629,
611,
560,
545,
446,
429,
388,
331,
290,
240,
240,
170,
171,
112,
109,
63,
38,
19,
9,
13,
8,
13,
8,
6,
8,
10,
8,
11,
4,
12,
10,
9,
5,
7,
3,
12,
7,
8,
4,
5,
6,
2,
3,
1,
4,
2,
5,
1,
3,
1,
5,
4,
2,
4,
1,
2,
2,
1,
2,
3,
4,
1,
2,
2,
2,
0,
5,
0,
1,
2,
0,
0,
0,
0,
0,
0,
3,
1,
0,
2,
2,
1,
0,
0,
0,
0,
0,
0,
0,
0,
0,
0,
0,
0,
0,
0,
0,
0,
0,
0,
0,
0,
0,
0,
0,
0,
0,
0,
0,
0,
0,
0,
0,
0,
0,
0,
0,
0,
0,
0,
0,
0,
0,
0,
0,
0,
0,
0,
0,
0,
0,
0,
0,
0,
0,
0,
0,
0,
0,
0,
0,
0,
0,
0,
0,
0,
0,
0,
0,
0,
0,
0,
0,
0,
0,
0,
0,
0,
0,
0,
0,
0,
0,
0,
0,
0,
0,
0,
#ENDOFDATA   :

File: Fe2P std.msa
#FORMAT      : EMSA/MAS Spectral Data File
#VERSION     : 1.0
#TITLE       : Fe2P std
#DATE        : 24-FEB-2025
#TIME        : 10:08
#OWNER       : Unknown
#NPOINTS     : 4096
#NCOLUMNS    : 1
#XUNITS      : eV
#YUNITS      : counts
#DATATYPE    : Y
#XPERCHAN    : 9.99778
#OFFSET      : 1.69135
#BEAMKV      : 20
#SIGNALTYPE  : EDS
#ELEVANGLE   : 35
#AZIMANGLE   : 0
#LIVETIME    : 1199.68
#REALTIME    : 1303.38
#PROBECUR    : 1.03053
#TAUWIND     : 0
#TDEADLYR    : 0
#TACTLYR     : 0.045
#TALWIND     : 0.025
#CHOFFSET    : 0.0
#XLABEL      : Energy (eV)
#YLABEL      : Counts
#EDSDET      : SD
##SPECIMEN   : Fe2P std
##D2STDCMP   : Fe2P,(P:21.711),(Fe:78.289)
##DET_HASH   : 12273538-fd48-a23f-0a19-f1e6fa85caef
##CALIB_HASH : 6abaa72c-aa41-8738-0be9-f592914732f3
##WORKING    : 15.0 mm
##SAMPLE     : <BulkSample id="1">\n<mOrientation id="2">\n<double>0.0</double>\n<double>0.0</double>\n<double>-1.0</double>\n</mOrientation>\n</BulkSample>
##MULTISPEC  : 1.44189
##DET_NAME   : EDAX All
##DET_MODE   : MediumLE
#SPECTRUM    :
149,
1533,
52298,
24018,
99027,
616350,
15840,
17732,
17840,
21091,
24124,
26342,
28803,
31906,
321736,
101585,
23055,
21931,
22184,
22692,
21993,
21240,
20787,
20339,
20114,
19575,
18645,
18332,
17863,
18045,
16961,
16710,
16078,
17898,
15606,
14635,
14204,
14223,
14009,
13483,
12865,
12445,
12146,
12477,
13523,
204295,
620983,
16778,
10880,
12685,
81169,
45325,
7439,
7609,
7164,
7127,
6637,
6825,
6654,
6554,
7050,
6260,
5979,
5778,
5612,
5582,
5251,
5121,
5120,
4841,
4723,
4752,
4474,
4422,
4097,
4113,
4032,
3757,
3607,
3534,
3454,
3275,
3244,
3063,
2998,
2835,
2656,
2666,
2563,
2496,
2390,
2869,
2553,
2004,
1984,
1898,
1924,
1811,
1641,
1541,
1540,
1421,
1304,
1402,
1215,
1187,
1092,
1080,
1062,
902,
936,
842,
773,
763,
695,
723,
679,
582,
574,
520,
447,
451,
430,
417,
334,
332,
309,
310,
268,
237,
232,
233,
155,
161,
144,
112,
115,
89,
76,
57,
46,
42,
20,
11,
10,
4,
4,
8,
6,
9,
5,
1,
2,
4,
2,
7,
3,
4,
3,
7,
4,
4,
3,
0,
0,
3,
3,
3,
2,
4,
1,
2,
2,
0,
1,
1,
1,
1,
0,
1,
3,
0,
0,
1,
0,
3,
1,
1,
0,
0,
1,
0,
0,
1,
1,
0,
0,
0,
2,
0,
0,
1,
1,
0,
1,
0,
0,
1,
0,
0,
0,
0,
0,
0,
0,
0,
0,
0,
0,
0,
0,
0,
0,
0,
0,
0,
0,
0,
0,
0,
0,
0,
0,
0,
0,
0,
0,
0,
0,
0,
0,
0,
0,
0,
0,
0,
0,
0,
0,
0,
0,
0,
0,
0,
0,
0,
0,
0,
0,
0,
0,
0,
0,
0,
0,
0,
0,
0,
0,
0,
0,
0,
0,
0,
0,
0,
0,
0,
0,
0,
0,
0,
0,
0,
0,
0,
0,
0,
0,
0,
0,
0,
0,
0,
#ENDOFDATA   :

File: Fe std.msa
#FORMAT      : EMSA/MAS Spectral Data File
#VERSION     : 1.0
#TITLE       : Fe std
#DATE        : 12-SEP-2025
#TIME        : 09:40
#OWNER       : Unknown
#NPOINTS     : 4096
#NCOLUMNS    : 1
#XUNITS      : eV
#YUNITS      : counts
#DATATYPE    : Y
#XPERCHAN    : 9.99778
#OFFSET      : 1.69135
#BEAMKV      : 20
#SIGNALTYPE  : EDS
#ELEVANGLE   : 35
#AZIMANGLE   : 0
#LIVETIME    : 1201.7
#REALTIME    : 1330.14
#PROBECUR    : 1.23853
#TAUWIND     : 0
#TDEADLYR    : 0
#TACTLYR     : 0.045
#TALWIND     : 0.025
#CHOFFSET    : 0.0
#XLABEL      : Energy (eV)
#YLABEL      : Counts
#EDSDET      : SD
##SPECIMEN   : Fe std
##D2STDCMP   : Fe,(Fe:100.0)
##DET_HASH   : 12273538-fd48-a23f-0a19-f1e6fa85caef
##CALIB_HASH : 6abaa72c-aa41-8738-0be9-f592914732f3
##WORKING    : 15.0 mm
##SAMPLE     : <BulkSample id="1">\n<mOrientation id="2">\n<double>0.0</double>\n<double>0.0</double>\n<double>-1.0</double>\n</mOrientation>\n</BulkSample>
##MULTISPEC  : 1.17334
##DET_NAME   : EDAX All
##DET_MODE   : MediumLE
#SPECTRUM    :
127,
1889,
48845,
39793,
187352,
947128,
16492,
14921,
18054,
23027,
27114,
27620,
31387,
32628,
29928,
30631,
31384,
31404,
31204,
30815,
30191,
29786,
29112,
28526,
27604,
26436,
25903,
25567,
24847,
23809,
22957,
22565,
21630,
25147,
20996,
19700,
19143,
18820,
18950,
17891,
16819,
16409,
16053,
16304,
19213,
322743,
978498,
24890,
14683,
17679,
127035,
70745,
9767,
9881,
9641,
9463,
8864,
8568,
8500,
8391,
7976,
7886,
7619,
7568,
7197,
7157,
6973,
6764,
6611,
6571,
6333,
6085,
5999,
5814,
5478,
5533,
5207,
5061,
4947,
4941,
4532,
4357,
4393,
4152,
4013,
3780,
3671,
3622,
3380,
3385,
3248,
4290,
3874,
2769,
2701,
2650,
2943,
2488,
2266,
2100,
2111,
1992,
1783,
1746,
1713,
1654,
1544,
1427,
1374,
1267,
1238,
1103,
1047,
1035,
976,
890,
916,
783,
744,
725,
668,
632,
663,
570,
520,
484,
439,
421,
348,
306,
296,
287,
256,
180,
227,
208,
149,
138,
115,
88,
75,
41,
23,
13,
17,
11,
18,
13,
11,
12,
12,
11,
13,
13,
4,
8,
6,
9,
5,
6,
4,
3,
3,
3,
3,
3,
4,
11,
7,
5,
5,
1,
3,
2,
1,
3,
2,
2,
3,
3,
1,
4,
2,
2,
2,
1,
1,
2,
1,
0,
1,
0,
0,
0,
1,
0,
0,
0,
0,
0,
1,
1,
0,
1,
0,
0,
0,
0,
1,
0,
0,
0,
0,
0,
0,
0,
0,
0,
0,
0,
0,
0,
0,
0,
0,
0,
0,
0,
0,
0,
0,
0,
0,
0,
0,
0,
0,
0,
0,
0,
0,
0,
0,
0,
0,
0,
0,
0,
0,
0,
0,
0,
0,
0,
0,
0,
0,
0,
0,
0,
0,
0,
0,
0,
0,
0,
0,
0,
0,
0,
0,
0,
0,
0,
0,
0,
0,
0,
0,
0,
0,
0,
0,
0,
0,
0,
0,
0,
0,
0,
0,
0,
0,
0,
#ENDOFDATA   :

File: FeS2 std.msa
#FORMAT      : EMSA/MAS Spectral Data File
#VERSION     : 1.0
#TITLE       : FeS2 std
#DATE        : 24-FEB-2025
#TIME        : 10:14
#OWNER       : Unknown
#NPOINTS     : 4096
#NCOLUMNS    : 1
#XUNITS      : eV
#YUNITS      : counts
#DATATYPE    : Y
#XPERCHAN    : 9.99778
#OFFSET      : 1.69135
#BEAMKV      : 20
#SIGNALTYPE  : EDS
#ELEVANGLE   : 35
#AZIMANGLE   : 0
#LIVETIME    : 1199.52
#REALTIME    : 1312.18
#PROBECUR    : 1.03053
#TAUWIND     : 0
#TDEADLYR    : 0
#TACTLYR     : 0.045
#TALWIND     : 0.025
#CHOFFSET    : 0.0
#XLABEL      : Energy (eV)
#YLABEL      : Counts
#EDSDET      : SD
##SPECIMEN   : FeS2 std
##D2STDCMP   : FeS2,(S:53.4528),(Fe:46.5472)
##DET_HASH   : 12273538-fd48-a23f-0a19-f1e6fa85caef
##CALIB_HASH : 6abaa72c-aa41-8738-0be9-f592914732f3
##WORKING    : 15.0 mm
##SAMPLE     : <BulkSample id="1">\n<mOrientation id="2">\n<double>0.0</double>\n<double>0.0</double>\n<double>-1.0</double>\n</mOrientation>\n</BulkSample>
##MULTISPEC  : 1.304
##DET_NAME   : EDAX All
##DET_MODE   : MediumLE
#SPECTRUM    :
146,
3687,
29727,
14055,
85943,
319596,
18823,
21003,
21697,
24843,
27761,
29747,
31666,
32726,
30759,
32789,
551609,
425707,
71649,
15733,
15932,
16786,
16441,
15983,
15639,
15188,
15281,
14821,
14615,
14372,
14005,
13609,
13720,
18749,
13661,
12317,
11983,
11742,
11610,
11143,
10977,
10483,
10058,
10037,
10826,
117946,
349099,
12462,
8881,
9937,
48001,
27949,
6767,
6884,
6646,
6221,
6117,
6046,
5913,
5817,
5414,
5498,
6631,
5447,
4963,
4692,
4588,
4677,
4351,
4211,
4163,
3955,
3819,
3765,
3626,
3612,
3368,
3310,
3273,
3066,
3014,
2853,
2637,
2693,
2545,
2465,
2479,
2188,
2193,
2155,
1996,
2067,
1994,
1684,
1726,
1583,
1550,
1549,
1428,
1302,
1297,
1199,
1150,
1068,
1041,
970,
955,
903,
820,
791,
751,
673,
656,
603,
603,
533,
486,
457,
423,
419,
421,
339,
328,
338,
307,
281,
247,
215,
202,
172,
190,
165,
159,
103,
114,
92,
69,
59,
58,
50,
46,
28,
11,
3,
2,
4,
1,
4,
4,
4,
4,
4,
1,
2,
5,
1,
3,
3,
1,
1,
2,
0,
1,
4,
2,
1,
5,
0,
1,
2,
1,
2,
1,
0,
1,
0,
1,
1,
1,
1,
0,
1,
0,
0,
1,
0,
0,
1,
1,
0,
0,
0,
0,
0,
0,
1,
0,
0,
0,
0,
0,
0,
0,
1,
0,
0,
0,
0,
0,
0,
0,
1,
0,
0,
0,
0,
0,
0,
0,
0,
0,
0,
0,
0,
0,
0,
0,
0,
0,
0,
0,
0,
0,
0,
0,
0,
0,
0,
0,
0,
0,
0,
0,
0,
0,
0,
0,
0,
0,
0,
0,
0,
0,
0,
0,
0,
0,
0,
0,
0,
0,
0,
0,
0,
0,
0,
0,
0,
0,
0,
0,
0,
0,
0,
0,
0,
0,
0,
0,
0,
0,
0,
0,
0,
0,
0,
0,
0,
0,
0,
0,
0,
0,
0,
#ENDOFDATA   :

File: GaAs std.msa
#FORMAT      : EMSA/MAS Spectral Data File
#VERSION     : 1.0
#TITLE       : GaAs std
#DATE        : 21-FEB-2025
#TIME        : 09:57
#OWNER       : Unknown
#NPOINTS     : 4096
#NCOLUMNS    : 1
#XUNITS      : eV
#YUNITS      : counts
#DATATYPE    : Y
#XPERCHAN    : 9.99778
#OFFSET      : 1.69135
#BEAMKV      : 20
#SIGNALTYPE  : EDS
#ELEVANGLE   : 35
#AZIMANGLE   : 0
#LIVETIME    : 957.858
#REALTIME    : 1055.39
#PROBECUR    : 1.05806
#TAUWIND     : 0
#TDEADLYR    : 0
#TACTLYR     : 0.045
#TALWIND     : 0.025
#CHOFFSET    : 0.0
#XLABEL      : Energy (eV)
#YLABEL      : Counts
#EDSDET      : SD
##SPECIMEN   : GaAs std
##D2STDCMP   : GaAs,(Ga:48.203),(As:51.797)
##DET_HASH   : 12273538-fd48-a23f-0a19-f1e6fa85caef
##CALIB_HASH : 6abaa72c-aa41-8738-0be9-f592914732f3
##WORKING    : 15.0 mm
##SAMPLE     : <BulkSample id="1">\n<mOrientation id="2">\n<double>0.0</double>\n<double>0.0</double>\n<double>-1.0</double>\n</mOrientation>\n</BulkSample>
##MULTISPEC  : 0.803038
##DET_NAME   : EDAX All
##DET_MODE   : MediumLE
#SPECTRUM    :
102,
1072,
22929,
17865,
28153,
38654,
48249,
126945,
1187728,
484182,
35029,
15130,
15843,
17621,
17056,
18203,
21077,
21814,
20089,
19804,
19835,
19936,
19977,
19380,
19400,
19170,
18717,
18476,
17659,
17710,
17080,
16841,
16603,
16184,
15445,
15225,
14787,
14179,
14234,
14237,
12974,
12985,
12571,
12251,
11710,
12429,
13794,
10898,
10562,
10273,
10358,
9751,
9375,
10045,
9369,
8644,
8555,
8179,
7994,
7848,
7595,
7478,
7303,
7153,
7099,
28774,
168489,
24951,
6297,
5891,
5776,
5860,
7134,
24833,
20412,
81660,
28246,
4622,
4173,
4063,
3985,
3851,
4113,
9107,
12852,
4308,
2997,
2892,
2752,
2659,
2572,
2564,
2482,
2301,
2218,
2147,
1996,
1949,
1871,
1728,
1740,
1607,
1541,
1566,
1453,
1466,
1300,
1213,
1187,
1134,
1058,
1050,
975,
867,
840,
805,
697,
738,
666,
601,
550,
570,
508,
455,
442,
426,
405,
354,
338,
295,
289,
257,
264,
199,
198,
165,
123,
114,
119,
73,
69,
83,
51,
21,
7,
10,
12,
8,
15,
12,
32,
19,
6,
8,
10,
6,
10,
3,
8,
8,
4,
4,
2,
10,
6,
4,
3,
3,
4,
4,
0,
4,
4,
1,
2,
8,
5,
6,
7,
4,
3,
2,
3,
1,
0,
2,
4,
3,
2,
2,
1,
2,
0,
1,
3,
3,
2,
1,
0,
0,
3,
0,
0,
1,
0,
0,
0,
0,
0,
0,
0,
1,
0,
0,
0,
0,
0,
0,
0,
0,
0,
0,
0,
0,
0,
0,
0,
0,
0,
0,
0,
0,
0,
0,
0,
0,
0,
0,
1,
0,
1,
0,
0,
0,
0,
0,
0,
0,
0,
0,
2,
0,
0,
0,
0,
0,
0,
0,
0,
0,
0,
0,
0,
0,
0,
0,
0,
0,
0,
0,
0,
0,
0,
0,
0,
0,
0,
0,
0,
0,
0,
0,
0,
0,
0,
0,
0,
0,
0,
0,
0,
0,
0,
0,
#ENDOFDATA   :

File: GaP std.msa
#FORMAT      : EMSA/MAS Spectral Data File
#VERSION     : 1.0
#TITLE       : GaP std
#DATE        : 24-FEB-2025
#TIME        : 10:20
#OWNER       : Unknown
#NPOINTS     : 4096
#NCOLUMNS    : 1
#XUNITS      : eV
#YUNITS      : counts
#DATATYPE    : Y
#XPERCHAN    : 9.99778
#OFFSET      : 1.69135
#BEAMKV      : 20
#SIGNALTYPE  : EDS
#ELEVANGLE   : 35
#AZIMANGLE   : 0
#LIVETIME    : 1199.04
#REALTIME    : 1321.15
#PROBECUR    : 1.03204
#TAUWIND     : 0
#TDEADLYR    : 0
#TACTLYR     : 0.045
#TALWIND     : 0.025
#CHOFFSET    : 0.0
#XLABEL      : Energy (eV)
#YLABEL      : Counts
#EDSDET      : SD
##SPECIMEN   : GaP std
##D2STDCMP   : GaP,(P:30.7594),(Ga:69.2406),5.0
##DET_HASH   : 12273538-fd48-a23f-0a19-f1e6fa85caef
##CALIB_HASH : 6abaa72c-aa41-8738-0be9-f592914732f3
##WORKING    : 15.0 mm
##SAMPLE     : <BulkSample id="1">\n<mOrientation id="2">\n<double>0.0</double>\n<double>0.0</double>\n<double>-1.0</double>\n</mOrientation>\n</BulkSample>
##MULTISPEC  : 1.10452
##DET_NAME   : EDAX All
##DET_MODE   : MediumLE
#SPECTRUM    :
151,
1498,
52396,
18151,
28394,
39005,
53670,
187936,
1831877,
19705,
18662,
21006,
24378,
27919,
377313,
114284,
24614,
18806,
19460,
19838,
19899,
20071,
23108,
20199,
19169,
19005,
18583,
18427,
18115,
18207,
17003,
16666,
16087,
15708,
15550,
15007,
14415,
14187,
13889,
13342,
13066,
12550,
12402,
11944,
11820,
11558,
11821,
10800,
10414,
10077,
10002,
9598,
9063,
9843,
8977,
8379,
8320,
8242,
7918,
7572,
7361,
7219,
7109,
7117,
7328,
39621,
243905,
33179,
6112,
5719,
5589,
5587,
7371,
33262,
17321,
4583,
4054,
3887,
3803,
3758,
3920,
3788,
3516,
3245,
3097,
3110,
2908,
2852,
2709,
2627,
2479,
2418,
2351,
2274,
2188,
2096,
1947,
1863,
1827,
1705,
1633,
1622,
1504,
1377,
1317,
1285,
1226,
1193,
1112,
1037,
989,
894,
912,
780,
749,
750,
659,
653,
604,
543,
506,
548,
442,
430,
420,
393,
335,
261,
272,
309,
268,
256,
271,
227,
159,
153,
114,
122,
86,
92,
58,
40,
38,
10,
14,
6,
4,
7,
3,
8,
5,
4,
4,
6,
8,
2,
4,
4,
5,
3,
1,
0,
1,
7,
2,
1,
2,
1,
3,
1,
1,
0,
3,
3,
2,
2,
1,
2,
1,
3,
1,
2,
1,
1,
1,
1,
0,
2,
2,
2,
1,
0,
1,
0,
2,
0,
0,
0,
0,
0,
0,
0,
2,
0,
1,
0,
0,
0,
0,
0,
0,
0,
0,
0,
1,
0,
0,
0,
0,
0,
0,
0,
0,
0,
0,
0,
0,
0,
0,
0,
0,
0,
0,
0,
0,
0,
0,
0,
0,
0,
0,
0,
0,
0,
0,
0,
0,
0,
0,
0,
0,
0,
0,
0,
0,
0,
0,
0,
0,
0,
0,
0,
0,
0,
0,
0,
0,
0,
0,
0,
0,
0,
0,
0,
1,
0,
0,
0,
0,
0,
0,
0,
0,
0,
0,
0,
0,
0,
0,
0,
0,
0,
0,
0,
#ENDOFDATA   :

File: Gd std.msa
#FORMAT      : EMSA/MAS Spectral Data File
#VERSION     : 1.0
#TITLE       : Gd std
#DATE        : 20-FEB-2025
#TIME        : 13:14
#OWNER       : Unknown
#NPOINTS     : 4096
#NCOLUMNS    : 1
#XUNITS      : eV
#YUNITS      : counts
#DATATYPE    : Y
#XPERCHAN    : 9.99778
#OFFSET      : 1.69135
#BEAMKV      : 20
#SIGNALTYPE  : EDS
#ELEVANGLE   : 35
#AZIMANGLE   : 0
#LIVETIME    : 959.989
#REALTIME    : 1062.46
#PROBECUR    : 1.04644
#TAUWIND     : 0
#TDEADLYR    : 0
#TACTLYR     : 0.045
#TALWIND     : 0.025
#CHOFFSET    : 0.0
#XLABEL      : Energy (eV)
#YLABEL      : Counts
#EDSDET      : SD
##SPECIMEN   : Gd std
##D2STDCMP   : Gd,(Gd:100.0),5.0
##DET_HASH   : 12273538-fd48-a23f-0a19-f1e6fa85caef
##CALIB_HASH : 6abaa72c-aa41-8738-0be9-f592914732f3
##WORKING    : 15.0 mm
##SAMPLE     : <BulkSample id="1">\n<mOrientation id="2">\n<double>0.0</double>\n<double>0.0</double>\n<double>-1.0</double>\n</mOrientation>\n</BulkSample>
##MULTISPEC  : 17.1922
##DET_NAME   : EDAX All
##DET_MODE   : MediumLE
#SPECTRUM    :
114,
2241,
45224,
34787,
61695,
58386,
79737,
77317,
111505,
79872,
40988,
32318,
23844,
24226,
21923,
23836,
24358,
25713,
26208,
27018,
27044,
27728,
27604,
27713,
27488,
27629,
27424,
27128,
26595,
26347,
26265,
26897,
25485,
24989,
24279,
24233,
23913,
23269,
35466,
26932,
21932,
21602,
28736,
372558,
94950,
20903,
22210,
38601,
206083,
56060,
40254,
71221,
16753,
14832,
15270,
26542,
29325,
16130,
20425,
12891,
12354,
11103,
10627,
10576,
10321,
10265,
9766,
9698,
9793,
9386,
9169,
9058,
8942,
8614,
8454,
8106,
7752,
7708,
7669,
7443,
7024,
7075,
6697,
6470,
6281,
6093,
6145,
5856,
5578,
5293,
5165,
5263,
4942,
4634,
4584,
4365,
4098,
3966,
3872,
3767,
3543,
3371,
3185,
3077,
2947,
2813,
2699,
2569,
2498,
2342,
2193,
2120,
1980,
1888,
1811,
1768,
1677,
1537,
1389,
1321,
1350,
1256,
1130,
1087,
1060,
989,
916,
750,
762,
702,
663,
553,
540,
463,
411,
372,
347,
301,
250,
209,
150,
105,
65,
31,
23,
27,
22,
24,
15,
22,
18,
20,
13,
20,
11,
24,
12,
14,
9,
10,
13,
21,
12,
13,
10,
10,
5,
12,
7,
4,
6,
6,
9,
12,
7,
2,
9,
7,
8,
8,
10,
6,
9,
4,
11,
6,
3,
6,
3,
4,
4,
2,
3,
2,
0,
1,
2,
3,
1,
2,
0,
3,
1,
1,
1,
1,
0,
1,
1,
2,
0,
1,
0,
0,
0,
0,
0,
2,
0,
1,
0,
1,
1,
0,
0,
0,
0,
0,
0,
0,
0,
0,
0,
0,
1,
0,
0,
0,
0,
0,
1,
0,
0,
0,
0,
0,
0,
0,
0,
0,
0,
1,
0,
0,
0,
0,
0,
0,
0,
0,
0,
0,
0,
0,
0,
0,
0,
0,
0,
0,
0,
0,
0,
0,
0,
0,
0,
0,
0,
0,
0,
0,
0,
0,
0,
0,
0,
0,
0,
0,
0,
0,
0,
0,
#ENDOFDATA   :

File: Ge std.msa
#FORMAT      : EMSA/MAS Spectral Data File
#VERSION     : 1.0
#TITLE       : Ge std
#DATE        : 21-FEB-2025
#TIME        : 09:21
#OWNER       : Unknown
#NPOINTS     : 4096
#NCOLUMNS    : 1
#XUNITS      : eV
#YUNITS      : counts
#DATATYPE    : Y
#XPERCHAN    : 9.99778
#OFFSET      : 1.69135
#BEAMKV      : 20
#SIGNALTYPE  : EDS
#ELEVANGLE   : 35
#AZIMANGLE   : 0
#LIVETIME    : 954.361
#REALTIME    : 1068.4
#PROBECUR    : 1.05789
#TAUWIND     : 0
#TDEADLYR    : 0
#TACTLYR     : 0.045
#TALWIND     : 0.025
#CHOFFSET    : 0.0
#XLABEL      : Energy (eV)
#YLABEL      : Counts
#EDSDET      : SD
##SPECIMEN   : Ge std
##D2STDCMP   : Ge,(Ge:100.0),5.0
##DET_HASH   : 12273538-fd48-a23f-0a19-f1e6fa85caef
##CALIB_HASH : 6abaa72c-aa41-8738-0be9-f592914732f3
##WORKING    : 15.0 mm
##SAMPLE     : <BulkSample id="1">\n<mOrientation id="2">\n<double>0.0</double>\n<double>0.0</double>\n<double>-1.0</double>\n</mOrientation>\n</BulkSample>
##MULTISPEC  : 1.49849
##DET_NAME   : EDAX All
##DET_MODE   : MediumLE
#SPECTRUM    :
104,
1137,
23612,
17159,
28149,
37853,
45736,
88176,
421517,
494269,
13388,
13744,
15690,
17313,
16301,
17408,
20005,
30928,
19197,
19202,
19293,
19597,
19534,
19177,
19231,
18739,
18713,
17994,
17570,
17366,
16896,
16695,
16141,
15915,
15284,
15010,
14700,
14231,
14036,
13950,
13225,
12821,
12375,
12076,
11640,
11935,
13736,
10668,
10561,
10244,
10175,
9730,
9349,
9741,
8915,
8680,
8346,
8203,
8071,
7737,
7510,
7362,
7078,
6725,
6727,
6594,
6293,
6243,
6334,
9635,
143486,
143717,
8564,
5220,
5049,
4795,
4928,
6051,
27753,
21342,
4628,
3623,
3345,
3149,
3197,
3108,
3041,
3090,
2849,
2678,
2579,
2399,
2368,
2375,
2201,
2185,
2038,
1930,
1883,
1852,
1672,
1587,
1529,
1545,
1404,
1368,
1255,
1258,
1235,
1149,
1048,
951,
981,
903,
806,
803,
753,
690,
672,
608,
617,
582,
533,
487,
465,
401,
360,
368,
316,
276,
273,
257,
236,
204,
172,
156,
153,
103,
82,
72,
80,
143,
82,
17,
13,
16,
14,
14,
23,
34,
19,
10,
4,
7,
6,
6,
5,
9,
10,
5,
7,
6,
8,
4,
4,
2,
5,
9,
3,
3,
5,
1,
1,
3,
3,
4,
4,
5,
3,
2,
2,
2,
2,
4,
2,
4,
0,
1,
1,
2,
3,
4,
0,
2,
1,
1,
2,
0,
0,
0,
0,
0,
1,
0,
0,
0,
0,
0,
0,
0,
0,
0,
1,
0,
0,
0,
0,
0,
0,
0,
0,
0,
0,
0,
0,
0,
0,
0,
0,
0,
0,
0,
0,
0,
0,
0,
1,
0,
0,
1,
0,
0,
0,
0,
0,
0,
0,
0,
0,
0,
0,
0,
0,
0,
0,
0,
0,
0,
0,
0,
0,
0,
0,
0,
0,
0,
0,
0,
0,
0,
0,
0,
0,
0,
0,
0,
0,
0,
0,
0,
0,
0,
0,
0,
0,
0,
0,
0,
0,
0,
0,
0,
0,
0,
#ENDOFDATA   :

File: Hf std.msa
#FORMAT      : EMSA/MAS Spectral Data File
#VERSION     : 1.0
#TITLE       : Hf std
#DATE        : 20-FEB-2025
#TIME        : 13:44
#OWNER       : Unknown
#NPOINTS     : 4096
#NCOLUMNS    : 1
#XUNITS      : eV
#YUNITS      : counts
#DATATYPE    : Y
#XPERCHAN    : 9.99778
#OFFSET      : 1.69135
#BEAMKV      : 20
#SIGNALTYPE  : EDS
#ELEVANGLE   : 35
#AZIMANGLE   : 0
#LIVETIME    : 960.454
#REALTIME    : 1092.46
#PROBECUR    : 1.04693
#TAUWIND     : 0
#TDEADLYR    : 0
#TACTLYR     : 0.045
#TALWIND     : 0.025
#CHOFFSET    : 0.0
#XLABEL      : Energy (eV)
#YLABEL      : Counts
#EDSDET      : SD
##SPECIMEN   : Hf std
##D2STDCMP   : Hf,(Hf:100.0),5.0
##DET_HASH   : 12273538-fd48-a23f-0a19-f1e6fa85caef
##CALIB_HASH : 6abaa72c-aa41-8738-0be9-f592914732f3
##WORKING    : 15.0 mm
##SAMPLE     : <BulkSample id="1">\n<mOrientation id="2">\n<double>0.0</double>\n<double>0.0</double>\n<double>-1.0</double>\n</mOrientation>\n</BulkSample>
##MULTISPEC  : 2.77254
##DET_NAME   : EDAX All
##DET_MODE   : MediumLE
#SPECTRUM    :
114,
3110,
36957,
23589,
35564,
39041,
43699,
47905,
52817,
150826,
61669,
108989,
1294546,
36112,
31527,
42434,
25775,
22754,
23613,
23389,
24182,
25332,
25337,
26954,
28592,
26076,
26104,
26134,
26013,
26013,
25371,
25493,
25329,
24904,
24855,
24531,
24274,
23577,
23912,
23627,
22403,
22031,
21568,
21310,
21091,
21443,
24077,
19455,
19108,
21689,
27321,
19159,
18098,
18642,
18084,
21767,
183373,
106255,
19133,
15707,
14608,
14325,
14274,
20044,
79426,
62411,
32914,
45908,
15265,
11627,
10312,
10259,
10029,
10300,
11235,
22515,
12277,
11714,
11726,
8467,
8575,
7758,
7092,
6914,
6917,
6638,
6502,
6366,
6041,
5874,
5665,
5465,
5228,
5226,
5017,
4689,
4535,
4282,
4184,
3984,
3924,
3774,
3667,
3457,
3297,
3116,
2972,
2907,
2794,
2653,
2511,
2459,
2510,
2393,
2082,
2026,
1909,
1771,
1735,
1616,
1515,
1544,
1458,
1334,
1234,
1150,
1071,
944,
936,
854,
790,
748,
650,
610,
526,
444,
427,
398,
274,
251,
202,
140,
84,
58,
30,
33,
29,
31,
28,
21,
23,
28,
26,
15,
21,
23,
17,
19,
13,
15,
15,
10,
16,
14,
10,
11,
14,
8,
6,
9,
21,
10,
9,
9,
3,
7,
17,
9,
11,
10,
8,
8,
13,
9,
6,
5,
4,
1,
4,
5,
5,
5,
5,
3,
2,
3,
3,
3,
2,
1,
4,
2,
2,
3,
1,
2,
2,
2,
0,
3,
0,
1,
2,
2,
0,
0,
1,
1,
0,
1,
2,
0,
1,
0,
0,
0,
2,
0,
0,
0,
0,
0,
0,
1,
0,
0,
0,
0,
0,
0,
1,
0,
0,
0,
0,
1,
0,
0,
0,
0,
0,
0,
0,
0,
0,
0,
0,
0,
0,
0,
1,
0,
1,
0,
0,
0,
0,
0,
0,
0,
0,
0,
0,
0,
0,
0,
0,
0,
0,
0,
0,
0,
0,
0,
0,
0,
0,
0,
0,
0,
0,
0,
0,
0,
#ENDOFDATA   :