Folder: spex_quant/N132962/Standards/20 keV (part 7)

File: Sn std.msa
#FORMAT      : EMSA/MAS Spectral Data File
#VERSION     : 1.0
#TITLE       : G588 Sn[0][all]+G588 Sn[1][all]+G588 Sn[2][all]+G588 Sn[3][all]+G588 Sn[4][all]
#NPOINTS     : 4096
#NCOLUMNS    : 1
#XUNITS      : eV
#YUNITS      : counts
#DATATYPE    : Y
#SIGNALTYPE  : EDS
#XLABEL      : Energy (eV)
#YLABEL      : Counts
#XPERCHAN -eV: 9.99778
#OFFSET   -eV: 1.69135
#CHOFFSET    : 0
#OWNER       : Unknown
#ELEVANGLE   : 35
#BEAMKV   -kV: 20
#LIVETIME  -s: 1198.92
#REALTIME  -s: 1331.78
#PROBECUR -nA: 1.0449
##WORKING -mm: 15
##D2STDCMP   : Sn,(Sn:100.0000),5.000
#SPECTRUM    :
148,
8206,
73278,
172422,
30008,
32990,
23161,
23092,
27272,
31624,
35468,
41265,
54994,
44940,
44232,
41470,
41892,
42269,
41353,
41281,
40650,
43471,
73272,
48494,
257722,
604426,
479257,
175660,
173526,
43087,
41147,
38071,
23082,
19280,
19646,
19649,
19791,
19790,
19569,
19736,
19174,
18768,
18663,
18381,
18123,
18843,
20492,
17361,
16952,
17589,
17235,
17477,
16442,
16810,
15839,
14824,
14503,
13967,
13591,
13194,
13057,
12560,
12071,
12251,
11853,
11480,
11201,
11158,
10609,
10625,
10102,
9955,
9611,
9126,
9195,
8699,
8497,
8250,
8117,
7758,
7560,
7428,
7102,
6828,
6557,
6609,
6088,
6044,
5785,
5524,
5327,
5100,
5052,
4814,
4581,
4306,
4178,
4066,
3819,
3732,
3639,
3453,
3309,
3146,
2979,
2836,
2763,
2641,
2460,
2274,
2234,
2067,
2051,
1912,
1728,
1706,
1634,
1548,
1480,
1365,
1319,
1152,
1104,
1073,
945,
899,
831,
814,
729,
660,
569,
524,
488,
469,
394,
338,
280,
270,
222,
158,
147,
112,
57,
25,
16,
15,
15,
22,
17,
12,
16,
16,
17,
15,
16,
9,
12,
5,
9,
8,
7,
10,
4,
8,
6,
6,
2,
6,
8,
2,
2,
3,
4,
4,
4,
3,
3,
4,
4,
1,
5,
2,
6,
4,
0,
2,
1,
3,
2,
6,
5,
1,
4,
2,
2,
1,
4,
0,
2,
2,
0,
1,
1,
0,
2,
1,
1,
1,
0,
0,
2,
1,
1,
0,
0,
1,
1,
0,
1,
0,
0,
0,
1,
0,
0,
0,
0,
0,
1,
0,
0,
0,
0,
0,
1,
1,
1,
0,
0,
1,
0,
0,
0,
1,
0,
0,
0,
0,
0,
0,
0,
0,
0,
0,
0,
0,
0,
0,
0,
0,
0,
0,
0,
0,
0,
0,
0,
0,
0,
0,
0,
0,
0,
0,
0,
0,
0,
0,
0,
0,
0,
0,
0,
0,
0,
0,
0,
0,
0,
0,
0,
0,
0,
0,
#ENDOFDATA   :

File: SrF2 std.msa
#FORMAT      : EMSA/MAS Spectral Data File
#VERSION     : 1.0
#TITLE       : SrF2 std
#DATE        : 03-MAR-2025
#TIME        : 16:45
#OWNER       : Unknown
#NPOINTS     : 4096
#NCOLUMNS    : 1
#XUNITS      : eV
#YUNITS      : counts
#DATATYPE    : Y
#XPERCHAN    : 9.99778
#OFFSET      : 1.69135
#BEAMKV      : 20
#SIGNALTYPE  : EDS
#ELEVANGLE   : 35
#AZIMANGLE   : 0
#LIVETIME    : 1197.65
#REALTIME    : 1297.93
#PROBECUR    : 1.06277
#TAUWIND     : 0
#TDEADLYR    : 0
#TACTLYR     : 0.045
#TALWIND     : 0.025
#CHOFFSET    : 0.0
#XLABEL      : Energy (eV)
#YLABEL      : Counts
#EDSDET      : SD
##SPECIMEN   : SrF2 std
##D2STDCMP   : SrF2,(F:30.2477),(Sr:69.7523)
##DET_HASH   : 12273538-fd48-a23f-0a19-f1e6fa85caef
##CALIB_HASH : 6abaa72c-aa41-8738-0be9-f592914732f3
##WORKING    : 15.01 mm
##SAMPLE     : <BulkSample id="1">\n<mOrientation id="2">\n<double>0.0</double>\n<double>0.0</double>\n<double>-1.0</double>\n</mOrientation>\n</BulkSample>
##MULTISPEC  : 1.58194
##DET_NAME   : EDAX All
##DET_MODE   : MediumLE
#SPECTRUM    :
2494,
7427,
39570,
15481,
30129,
333788,
22787,
25577,
30551,
34698,
37934,
70691,
76288,
1510721,
118354,
17098,
18602,
16448,
18751,
17494,
17611,
17763,
18014,
18085,
18264,
18198,
21565,
18323,
17374,
16901,
16333,
16227,
17649,
15658,
15369,
15139,
14356,
14114,
13804,
13594,
12972,
12625,
12423,
12065,
11605,
11533,
12027,
10687,
10297,
10068,
9827,
9577,
9136,
9654,
8989,
8539,
8287,
8095,
7791,
7770,
7422,
7188,
6829,
6641,
6466,
6313,
6027,
6067,
5845,
5661,
5560,
5434,
5186,
4980,
5010,
4675,
4470,
4390,
4246,
4047,
4075,
3858,
3719,
3479,
3451,
3239,
3244,
3010,
2823,
2851,
2723,
2539,
2426,
2420,
2241,
2167,
2181,
1922,
1939,
1915,
7015,
15971,
4849,
1674,
1451,
1374,
1324,
1201,
1097,
1121,
988,
947,
1472,
2781,
1475,
1019,
724,
681,
590,
576,
522,
508,
465,
432,
403,
398,
340,
322,
272,
283,
234,
216,
211,
162,
139,
141,
120,
91,
90,
54,
40,
27,
17,
6,
6,
2,
3,
2,
5,
3,
5,
4,
3,
0,
6,
3,
4,
1,
4,
0,
1,
2,
4,
5,
1,
0,
2,
1,
1,
3,
4,
2,
0,
0,
4,
4,
2,
1,
0,
1,
2,
2,
4,
2,
1,
1,
1,
0,
1,
2,
0,
0,
0,
1,
0,
0,
0,
1,
1,
0,
0,
0,
0,
0,
0,
0,
0,
1,
0,
0,
1,
1,
0,
0,
0,
0,
0,
0,
0,
0,
0,
0,
0,
0,
0,
0,
0,
0,
0,
0,
0,
0,
0,
0,
0,
0,
0,
0,
0,
0,
0,
0,
0,
0,
0,
0,
0,
0,
0,
0,
0,
0,
0,
0,
0,
0,
0,
0,
0,
0,
0,
0,
0,
0,
0,
0,
0,
0,
0,
0,
0,
0,
0,
0,
0,
0,
0,
0,
0,
0,
0,
0,
0,
0,
0,
0,
0,
0,
0,
0,
0,
0,
0,
0,
#ENDOFDATA   :

File: SrTiO3 std.msa
#FORMAT      : EMSA/MAS Spectral Data File
#VERSION     : 1.0
#TITLE       : SrTiO3 std
#DATE        : 03-MAR-2025
#TIME        : 16:50
#OWNER       : Unknown
#NPOINTS     : 4096
#NCOLUMNS    : 1
#XUNITS      : eV
#YUNITS      : counts
#DATATYPE    : Y
#XPERCHAN    : 9.99778
#OFFSET      : 1.69135
#BEAMKV      : 20
#SIGNALTYPE  : EDS
#ELEVANGLE   : 35
#AZIMANGLE   : 0
#LIVETIME    : 1198.07
#REALTIME    : 1286.93
#PROBECUR    : 1.06277
#TAUWIND     : 0
#TDEADLYR    : 0
#TACTLYR     : 0.045
#TALWIND     : 0.025
#CHOFFSET    : 0.0
#XLABEL      : Energy (eV)
#YLABEL      : Counts
#EDSDET      : SD
##SPECIMEN   : SrTiO3 std
##D2STDCMP   : SrTiO3,(O:26.1592),(Ti:26.0877),(Sr:47.7532)
##DET_HASH   : 12273538-fd48-a23f-0a19-f1e6fa85caef
##CALIB_HASH : 6abaa72c-aa41-8738-0be9-f592914732f3
##WORKING    : 15.01 mm
##SAMPLE     : <BulkSample id="1">\n<mOrientation id="2">\n<double>0.0</double>\n<double>0.0</double>\n<double>-1.0</double>\n</mOrientation>\n</BulkSample>
##MULTISPEC  : 1.12628
##DET_NAME   : EDAX All
##DET_MODE   : MediumLE
#SPECTRUM    :
110,
2543,
40913,
47389,
80560,
15074,
19670,
22715,
26367,
30304,
33764,
54386,
55972,
1058908,
80424,
18512,
19885,
18234,
18302,
18743,
20934,
18306,
18400,
18502,
17754,
17681,
18941,
17460,
16737,
16114,
15901,
19890,
391080,
53902,
16079,
62828,
20148,
11714,
11489,
11500,
11187,
10785,
10573,
10340,
9970,
10922,
10683,
9157,
9151,
8887,
8442,
8405,
8128,
8246,
7846,
7506,
7257,
7061,
6930,
6701,
6453,
6135,
6147,
5875,
5795,
5598,
5278,
5253,
5160,
5028,
4836,
4559,
4523,
4440,
4193,
4195,
4003,
3781,
3654,
3596,
3435,
3276,
3288,
3012,
2936,
2798,
2721,
2520,
2447,
2385,
2327,
2215,
2209,
2055,
1945,
1882,
1767,
1785,
1712,
1750,
5004,
11156,
3484,
1402,
1206,
1104,
1063,
1041,
1007,
913,
906,
890,
1165,
2019,
1137,
744,
643,
514,
538,
510,
481,
426,
413,
388,
356,
337,
287,
252,
267,
202,
206,
181,
181,
135,
136,
115,
100,
96,
74,
60,
35,
24,
17,
9,
2,
6,
5,
3,
5,
5,
4,
2,
3,
3,
2,
3,
3,
3,
3,
1,
2,
2,
1,
1,
2,
0,
0,
0,
2,
0,
0,
1,
1,
1,
1,
0,
1,
0,
0,
1,
0,
2,
0,
0,
0,
0,
1,
1,
0,
0,
0,
0,
0,
1,
1,
1,
1,
0,
0,
1,
0,
0,
1,
0,
0,
0,
0,
0,
0,
0,
0,
0,
0,
0,
0,
0,
0,
0,
0,
0,
0,
0,
0,
0,
0,
0,
0,
0,
0,
0,
0,
0,
0,
0,
0,
1,
0,
0,
0,
0,
0,
0,
0,
0,
0,
0,
0,
0,
0,
0,
0,
0,
0,
0,
0,
0,
0,
0,
0,
0,
0,
0,
0,
0,
0,
0,
0,
0,
0,
0,
0,
0,
0,
0,
0,
0,
0,
0,
0,
0,
0,
0,
0,
0,
0,
0,
0,
0,
0,
0,
0,
0,
0,
0,
#ENDOFDATA   :

File: Ta std.msa
#FORMAT      : EMSA/MAS Spectral Data File
#VERSION     : 1.0
#TITLE       : Ta std
#DATE        : 20-FEB-2025
#TIME        : 13:38
#OWNER       : Unknown
#NPOINTS     : 4096
#NCOLUMNS    : 1
#XUNITS      : eV
#YUNITS      : counts
#DATATYPE    : Y
#XPERCHAN    : 9.99778
#OFFSET      : 1.69135
#BEAMKV      : 20
#SIGNALTYPE  : EDS
#ELEVANGLE   : 35
#AZIMANGLE   : 0
#LIVETIME    : 959.9758
#REALTIME    : 1094.31
#PROBECUR    : 1.04693
#TAUWIND     : 0
#TDEADLYR    : 0
#TACTLYR     : 0.045
#TALWIND     : 0.025
#CHOFFSET    : 0.0
#XLABEL      : Energy (eV)
#YLABEL      : Counts
#EDSDET      : SD
##SPECIMEN   : Ta std
##D2STDCMP   : Ta,(Ta:100.0)
##DET_HASH   : 12273538-fd48-a23f-0a19-f1e6fa85caef
##CALIB_HASH : 6abaa72c-aa41-8738-0be9-f592914732f3
##WORKING    : 15.0 mm
##SAMPLE     : <BulkSample id="1">\n<mOrientation id="2">\n<double>0.0</double>\n<double>0.0</double>\n<double>-1.0</double>\n</mOrientation>\n</BulkSample>
##MULTISPEC  : 1.07566
##DET_NAME   : EDAX All
##DET_MODE   : MediumLE
#SPECTRUM    :
108,
2785,
37568,
22494,
33441,
37553,
42378,
46527,
51441,
73898,
78155,
64987,
1214794,
194992,
48498,
24100,
30094,
22814,
22729,
24091,
23607,
24213,
25496,
25289,
27681,
28716,
26033,
26082,
26303,
26003,
25633,
25573,
25439,
25151,
24887,
24514,
24060,
24114,
23854,
23634,
22829,
22550,
22076,
21775,
21354,
21965,
24035,
19764,
19510,
19126,
19692,
27482,
20367,
18615,
18027,
17343,
16826,
31999,
224003,
55679,
17437,
15152,
14296,
14094,
13898,
16580,
50330,
82470,
32848,
49273,
16687,
12236,
9938,
9866,
9462,
9587,
9615,
13056,
20104,
10424,
11984,
10045,
7745,
7942,
7113,
6686,
6500,
6443,
6208,
6007,
5844,
5531,
5348,
5354,
5034,
4861,
4554,
4457,
4408,
4157,
3991,
3968,
3918,
3571,
3399,
3381,
3158,
3010,
2928,
2728,
2595,
2491,
2390,
2325,
2195,
2064,
2055,
1850,
1765,
1610,
1594,
1501,
1428,
1253,
1312,
1241,
1131,
1102,
934,
878,
818,
755,
695,
671,
520,
510,
473,
395,
297,
295,
203,
190,
109,
41,
47,
34,
39,
27,
36,
30,
24,
19,
33,
24,
20,
27,
29,
17,
18,
16,
19,
23,
17,
12,
15,
13,
16,
12,
10,
6,
11,
11,
4,
10,
8,
10,
16,
16,
7,
9,
9,
7,
7,
6,
11,
12,
4,
8,
5,
4,
3,
7,
6,
6,
5,
3,
4,
0,
2,
3,
4,
5,
1,
2,
0,
4,
3,
0,
0,
1,
0,
0,
1,
1,
0,
0,
0,
2,
0,
1,
0,
0,
0,
0,
1,
0,
0,
1,
0,
0,
1,
0,
0,
0,
0,
0,
0,
0,
1,
0,
0,
1,
0,
1,
0,
0,
2,
0,
0,
0,
0,
0,
0,
0,
0,
0,
0,
0,
0,
0,
0,
0,
0,
0,
0,
0,
0,
0,
0,
0,
0,
0,
0,
0,
0,
0,
0,
0,
0,
0,
0,
0,
0,
0,
0,
0,
0,
0,
0,
0,
0,
0,
0,
0,
#ENDOFDATA   :

File: Tb std.msa
#FORMAT      : EMSA/MAS Spectral Data File
#VERSION     : 1.0
#TITLE       : Tb std
#DATE        : 20-FEB-2025
#TIME        : 13:20
#OWNER       : Unknown
#NPOINTS     : 4096
#NCOLUMNS    : 1
#XUNITS      : eV
#YUNITS      : counts
#DATATYPE    : Y
#XPERCHAN    : 9.99778
#OFFSET      : 1.69135
#BEAMKV      : 20
#SIGNALTYPE  : EDS
#ELEVANGLE   : 35
#AZIMANGLE   : 0
#LIVETIME    : 1200.44
#REALTIME    : 1328.65
#PROBECUR    : 1.04644
#TAUWIND     : 0
#TDEADLYR    : 0
#TACTLYR     : 0.045
#TALWIND     : 0.025
#CHOFFSET    : 0.0
#XLABEL      : Energy (eV)
#YLABEL      : Counts
#EDSDET      : SD
##SPECIMEN   : Tb std
##D2STDCMP   : Tb,(Tb:100.0)
##DET_HASH   : 12273538-fd48-a23f-0a19-f1e6fa85caef
##CALIB_HASH : 6abaa72c-aa41-8738-0be9-f592914732f3
##WORKING    : 15.0 mm
##SAMPLE     : <BulkSample id="1">\n<mOrientation id="2">\n<double>0.0</double>\n<double>0.0</double>\n<double>-1.0</double>\n</mOrientation>\n</BulkSample>
##MULTISPEC  : 1.25029
##DET_NAME   : EDAX All
##DET_MODE   : MediumLE
#SPECTRUM    :
159,
2880,
53052,
40996,
70111,
87218,
67978,
215969,
76340,
381614,
37352,
35470,
34747,
29863,
27765,
28602,
30271,
31325,
32440,
33097,
33736,
33737,
34476,
34261,
34729,
34429,
34392,
33892,
33495,
33107,
32676,
32464,
33399,
31640,
30990,
30584,
29585,
29283,
29174,
34603,
41903,
27639,
27301,
27560,
114535,
455001,
36415,
24377,
24026,
65538,
227783,
57783,
59050,
74368,
20035,
16774,
18010,
24374,
43782,
18721,
26042,
16055,
15694,
13779,
13060,
12751,
12672,
12251,
12340,
12035,
11726,
11364,
11377,
10977,
10671,
10403,
10149,
9621,
9768,
9317,
9206,
8926,
8474,
8410,
7966,
7816,
7431,
7307,
7072,
7117,
6902,
6412,
6213,
5991,
5892,
5708,
5386,
5113,
4901,
4683,
4607,
4362,
4195,
3924,
3838,
3592,
3398,
3325,
3127,
2901,
2811,
2689,
2660,
2544,
2364,
2139,
2059,
1963,
1852,
1777,
1624,
1567,
1467,
1428,
1307,
1175,
1151,
1040,
983,
889,
852,
780,
705,
622,
548,
503,
426,
350,
256,
256,
174,
152,
87,
47,
39,
33,
28,
32,
30,
31,
25,
24,
19,
26,
22,
12,
21,
26,
30,
11,
14,
13,
11,
22,
12,
12,
13,
7,
11,
11,
9,
11,
6,
6,
7,
8,
8,
9,
4,
6,
13,
8,
6,
7,
8,
2,
6,
1,
5,
4,
4,
3,
3,
2,
1,
5,
2,
1,
2,
0,
3,
2,
1,
3,
1,
1,
3,
4,
0,
0,
2,
0,
2,
1,
1,
1,
2,
1,
2,
0,
1,
2,
1,
2,
2,
0,
0,
0,
0,
0,
0,
0,
0,
1,
0,
0,
0,
1,
0,
1,
0,
0,
0,
0,
0,
0,
0,
0,
0,
0,
0,
0,
0,
0,
0,
1,
0,
0,
0,
0,
0,
0,
1,
0,
0,
0,
0,
0,
0,
0,
0,
0,
0,
0,
0,
0,
0,
0,
0,
0,
0,
0,
0,
0,
0,
0,
0,
0,
0,
0,
0,
0,
0,
0,
#ENDOFDATA   :

File: Te std.msa
#FORMAT      : EMSA/MAS Spectral Data File
#VERSION     : 1.0
#TITLE       : Te std
#DATE        : 20-FEB-2025
#TIME        : 13:02
#OWNER       : Unknown
#NPOINTS     : 4096
#NCOLUMNS    : 1
#XUNITS      : eV
#YUNITS      : counts
#DATATYPE    : Y
#XPERCHAN    : 9.99778
#OFFSET      : 1.69135
#BEAMKV      : 20
#SIGNALTYPE  : EDS
#ELEVANGLE   : 35
#AZIMANGLE   : 0
#LIVETIME    : 1193.24
#REALTIME    : 1322.52
#PROBECUR    : 1.04644
#TAUWIND     : 0
#TDEADLYR    : 0
#TACTLYR     : 0.045
#TALWIND     : 0.025
#CHOFFSET    : 0.0
#XLABEL      : Energy (eV)
#YLABEL      : Counts
#EDSDET      : SD
##SPECIMEN   : Te std
##D2STDCMP   : Te,(Te:100.0),5.0
##DET_HASH   : 12273538-fd48-a23f-0a19-f1e6fa85caef
##CALIB_HASH : 6abaa72c-aa41-8738-0be9-f592914732f3
##WORKING    : 15.0 mm
##SAMPLE     : <BulkSample id="1">\n<mOrientation id="2">\n<double>0.0</double>\n<double>0.0</double>\n<double>-1.0</double>\n</mOrientation>\n</BulkSample>
##MULTISPEC  : 1.25918
##DET_NAME   : EDAX All
##DET_MODE   : MediumLE
#SPECTRUM    :
133,
9226,
72222,
196738,
77314,
27666,
30626,
22504,
25213,
29019,
32578,
36447,
39230,
41161,
40611,
41181,
47839,
41439,
40546,
39751,
39560,
38521,
37865,
39197,
69928,
38633,
80208,
1006496,
79853,
484332,
87880,
139337,
34651,
53686,
32230,
28414,
19247,
18784,
19238,
19920,
18777,
18636,
18420,
18013,
17893,
18871,
21616,
16999,
16778,
16435,
16750,
16077,
15719,
16471,
16192,
15133,
15162,
14681,
14204,
13740,
13093,
12776,
12556,
12220,
11937,
11643,
11270,
10996,
10807,
10656,
10453,
10779,
9969,
9584,
9315,
8920,
8740,
8554,
8170,
7849,
7600,
7517,
7434,
7080,
6858,
6770,
6172,
6014,
6051,
5500,
5389,
5313,
4998,
4945,
4685,
4559,
4427,
4129,
4069,
3717,
3589,
3547,
3365,
3304,
3097,
2837,
2630,
2599,
2515,
2315,
2250,
2160,
2069,
2029,
1798,
1716,
1673,
1537,
1480,
1430,
1293,
1182,
1209,
1091,
993,
913,
927,
857,
754,
703,
628,
584,
512,
457,
450,
390,
353,
311,
233,
194,
125,
109,
71,
40,
21,
21,
20,
18,
20,
20,
13,
12,
23,
11,
11,
7,
10,
11,
5,
12,
7,
6,
8,
8,
6,
1,
13,
4,
4,
3,
1,
2,
3,
3,
2,
4,
6,
2,
1,
3,
2,
1,
1,
6,
3,
3,
2,
3,
6,
1,
1,
0,
2,
1,
4,
2,
0,
2,
3,
1,
2,
2,
0,
0,
0,
0,
0,
0,
2,
1,
2,
0,
0,
1,
0,
1,
0,
0,
0,
1,
0,
0,
0,
1,
0,
1,
0,
0,
1,
0,
1,
0,
0,
0,
0,
0,
0,
0,
0,
0,
0,
0,
0,
0,
0,
0,
0,
0,
0,
1,
0,
0,
0,
0,
0,
0,
0,
0,
0,
0,
0,
0,
0,
0,
0,
0,
0,
0,
0,
0,
0,
0,
0,
0,
0,
0,
0,
0,
0,
0,
0,
0,
0,
0,
0,
0,
0,
0,
0,
0,
0,
0,
0,
0,
#ENDOFDATA   :

File: ThF4 std.msa
#FORMAT      : EMSA/MAS Spectral Data File
#VERSION     : 1.0
#TITLE       : ThF4 std
#DATE        : 12-SEP-2025
#TIME        : 11:40
#OWNER       : Unknown
#NPOINTS     : 4096
#NCOLUMNS    : 1
#XUNITS      : eV
#YUNITS      : counts
#DATATYPE    : Y
#XPERCHAN    : 9.99778
#OFFSET      : 1.69135
#BEAMKV      : 20
#SIGNALTYPE  : EDS
#ELEVANGLE   : 35
#AZIMANGLE   : 0
#LIVETIME    : 961.448
#REALTIME    : 1075.79
#PROBECUR    : 1.24145
#TAUWIND     : 0
#TDEADLYR    : 0
#TACTLYR     : 0.045
#TALWIND     : 0.025
#CHOFFSET    : 0.0
#XLABEL      : Energy (eV)
#YLABEL      : Counts
#EDSDET      : SD
##SPECIMEN   : ThF4 std
##D2STDCMP   : ThF4,(F:24.6703),(Th:75.3297)
##DET_HASH   : 12273538-fd48-a23f-0a19-f1e6fa85caef
##CALIB_HASH : 6abaa72c-aa41-8738-0be9-f592914732f3
##WORKING    : 15.0 mm
##SAMPLE     : <BulkSample id="1">\n<mOrientation id="2">\n<double>0.0</double>\n<double>0.0</double>\n<double>-1.0</double>\n</mOrientation>\n</BulkSample>
##MULTISPEC  : 1.78054
##DET_NAME   : EDAX All
##DET_MODE   : MediumLE
#SPECTRUM    :
102,
4539,
166596,
44590,
38666,
198009,
25848,
25779,
30078,
43531,
41801,
38166,
40675,
41778,
37614,
38155,
43295,
67012,
41314,
44454,
44547,
333116,
308780,
160665,
72994,
28351,
24587,
26264,
30305,
28704,
25041,
22269,
25265,
22988,
23357,
22683,
21900,
21301,
21062,
20647,
20607,
20288,
20162,
20325,
19965,
19714,
20686,
18493,
17964,
17803,
17711,
16907,
16672,
17226,
16428,
15806,
15222,
14852,
14559,
14637,
14013,
13822,
13418,
13177,
12759,
12514,
12219,
11993,
11723,
11304,
11128,
10862,
10546,
10330,
9821,
9553,
9423,
9143,
8821,
9312,
8800,
8145,
7741,
7681,
7285,
7033,
6857,
6467,
6444,
6365,
6090,
7056,
13880,
13765,
5703,
5027,
4623,
4634,
4291,
4053,
4030,
3687,
3658,
3536,
3367,
3128,
3097,
3122,
2783,
2697,
2619,
3999,
3574,
2258,
2151,
2100,
2128,
1734,
1550,
1496,
1417,
1345,
1190,
1108,
1166,
1028,
1008,
924,
809,
785,
656,
608,
564,
494,
458,
444,
356,
316,
242,
192,
186,
115,
64,
39,
21,
18,
27,
21,
21,
20,
18,
19,
24,
17,
14,
10,
12,
14,
14,
5,
15,
11,
14,
6,
12,
6,
5,
4,
6,
6,
7,
8,
1,
4,
2,
8,
5,
8,
7,
8,
7,
8,
4,
2,
7,
9,
2,
2,
3,
5,
4,
5,
1,
2,
3,
7,
4,
2,
1,
3,
5,
1,
1,
0,
1,
1,
0,
0,
1,
0,
0,
1,
1,
0,
0,
1,
1,
0,
0,
2,
1,
2,
1,
0,
0,
0,
0,
0,
0,
0,
0,
0,
1,
0,
0,
0,
0,
0,
1,
0,
0,
0,
0,
0,
0,
0,
0,
0,
0,
0,
0,
0,
0,
0,
0,
0,
0,
0,
0,
0,
0,
0,
0,
0,
0,
0,
0,
0,
0,
0,
0,
0,
0,
0,
0,
0,
0,
0,
0,
0,
0,
0,
0,
0,
0,
0,
0,
0,
0,
0,
0,
0,
0,
0,
#ENDOFDATA   :

File: Ti std.msa
#FORMAT      : EMSA/MAS Spectral Data File
#VERSION     : 1.0
#TITLE       : Ti std
#DATE        : 20-FEB-2025
#TIME        : 16:38
#OWNER       : Unknown
#NPOINTS     : 4096
#NCOLUMNS    : 1
#XUNITS      : eV
#YUNITS      : counts
#DATATYPE    : Y
#XPERCHAN    : 9.99778
#OFFSET      : 1.69135
#BEAMKV      : 20
#SIGNALTYPE  : EDS
#ELEVANGLE   : 35
#AZIMANGLE   : 0
#LIVETIME    : 1198.46
#REALTIME    : 1316.81
#PROBECUR    : 1.04967
#TAUWIND     : 0
#TDEADLYR    : 0
#TACTLYR     : 0.045
#TALWIND     : 0.025
#CHOFFSET    : 0.0
#XLABEL      : Energy (eV)
#YLABEL      : Counts
#EDSDET      : SD
##SPECIMEN   : Ti std
##D2STDCMP   : Ti,(Ti:100.0),5.0
##DET_HASH   : 12273538-fd48-a23f-0a19-f1e6fa85caef
##CALIB_HASH : 6abaa72c-aa41-8738-0be9-f592914732f3
##WORKING    : 15.0 mm
##SAMPLE     : <BulkSample id="1">\n<mOrientation id="2">\n<double>0.0</double>\n<double>0.0</double>\n<double>-1.0</double>\n</mOrientation>\n</BulkSample>
##MULTISPEC  : 1.401
##DET_NAME   : EDAX All
##DET_MODE   : MediumLE
#SPECTRUM    :
145,
1710,
43477,
338719,
19738,
12665,
15389,
17554,
21649,
24793,
27167,
29754,
31784,
32548,
28645,
28649,
27920,
27841,
27046,
28033,
36550,
24721,
23990,
24531,
22348,
21504,
20984,
20697,
20111,
18710,
19083,
37541,
1658311,
197653,
22882,
221907,
40497,
9566,
10144,
9753,
9460,
9280,
9184,
9184,
8796,
9278,
9803,
8456,
8214,
8115,
7927,
7572,
7465,
7736,
7296,
6911,
6632,
6612,
6478,
6195,
5960,
5825,
5810,
5724,
7438,
6803,
5261,
5496,
5454,
4626,
4639,
4558,
4236,
4079,
3966,
3975,
3697,
3506,
3510,
3434,
3146,
3138,
2946,
2861,
2843,
2691,
2587,
2503,
2377,
2249,
2201,
2165,
1975,
1935,
1920,
1698,
1689,
1580,
1487,
1505,
1344,
1278,
1239,
1257,
1137,
1145,
1026,
984,
853,
844,
789,
830,
730,
674,
661,
629,
558,
559,
484,
489,
450,
442,
381,
348,
359,
316,
262,
250,
233,
198,
208,
160,
171,
113,
130,
110,
92,
90,
61,
47,
42,
36,
23,
13,
8,
5,
8,
5,
4,
4,
6,
4,
7,
2,
5,
4,
3,
9,
1,
3,
1,
0,
2,
3,
1,
2,
3,
1,
0,
1,
0,
2,
1,
1,
0,
0,
2,
1,
1,
0,
1,
0,
0,
1,
0,
0,
2,
0,
1,
1,
0,
0,
0,
1,
0,
0,
0,
0,
0,
0,
0,
0,
0,
0,
0,
0,
0,
0,
0,
0,
0,
0,
0,
0,
0,
0,
0,
0,
0,
0,
0,
0,
0,
0,
0,
0,
0,
0,
0,
0,
0,
0,
0,
0,
0,
0,
0,
0,
0,
0,
0,
0,
0,
0,
0,
0,
0,
0,
0,
0,
0,
0,
0,
0,
0,
0,
0,
0,
0,
0,
0,
0,
0,
0,
0,
0,
0,
0,
0,
0,
0,
0,
0,
0,
0,
0,
0,
0,
0,
0,
0,
0,
0,
0,
0,
0,
0,
0,
0,
0,
0,
0,
0,
0,
#ENDOFDATA   :

File: Tm std.msa
#FORMAT      : EMSA/MAS Spectral Data File
#VERSION     : 1.0
#TITLE       : Tm std
#DATE        : 20-FEB-2025
#TIME        : 13:50
#OWNER       : Unknown
#NPOINTS     : 4096
#NCOLUMNS    : 1
#XUNITS      : eV
#YUNITS      : counts
#DATATYPE    : Y
#XPERCHAN    : 9.99778
#OFFSET      : 1.69135
#BEAMKV      : 20
#SIGNALTYPE  : EDS
#ELEVANGLE   : 35
#AZIMANGLE   : 0
#LIVETIME    : 960.613
#REALTIME    : 1070.12
#PROBECUR    : 1.04692
#TAUWIND     : 0
#TDEADLYR    : 0
#TACTLYR     : 0.045
#TALWIND     : 0.025
#CHOFFSET    : 0.0
#XLABEL      : Energy (eV)
#YLABEL      : Counts
#EDSDET      : SD
##SPECIMEN   : Tm std
##D2STDCMP   : Tm,(Tm:100.0),5.0
##DET_HASH   : 12273538-fd48-a23f-0a19-f1e6fa85caef
##CALIB_HASH : 6abaa72c-aa41-8738-0be9-f592914732f3
##WORKING    : 15.0 mm
##SAMPLE     : <BulkSample id="1">\n<mOrientation id="2">\n<double>0.0</double>\n<double>0.0</double>\n<double>-1.0</double>\n</mOrientation>\n</BulkSample>
##MULTISPEC  : 2.95556
##DET_NAME   : EDAX All
##DET_MODE   : MediumLE
#SPECTRUM    :
125,
2909,
38034,
27002,
40791,
49675,
48993,
52620,
182604,
61344,
181925,
264972,
50328,
28546,
25676,
21452,
23132,
23435,
24346,
25346,
25526,
26632,
26438,
26684,
27182,
26733,
26959,
26774,
26632,
26402,
26473,
25937,
25338,
25293,
24594,
24532,
24363,
24130,
23888,
24416,
22644,
21984,
21898,
21214,
21165,
32253,
27114,
19636,
19446,
19205,
28077,
275271,
88360,
19590,
17516,
16494,
16579,
47712,
135884,
39627,
47930,
40614,
14357,
11793,
11586,
12052,
12672,
27373,
17770,
13914,
15413,
10226,
10163,
9128,
8814,
8622,
8386,
8348,
7960,
7757,
7650,
7592,
7157,
6983,
6793,
6521,
6437,
6171,
5937,
5780,
5677,
5247,
5167,
5125,
4826,
4674,
4526,
4374,
4245,
3934,
3853,
3688,
3577,
3541,
3183,
3101,
2964,
2893,
2771,
2678,
2553,
2265,
2270,
2226,
2055,
1914,
1856,
1667,
1682,
1531,
1394,
1415,
1269,
1230,
1185,
1050,
988,
942,
878,
807,
754,
721,
592,
593,
501,
443,
409,
341,
265,
230,
167,
131,
86,
36,
27,
33,
23,
25,
20,
27,
25,
20,
19,
21,
23,
21,
20,
20,
19,
22,
16,
12,
13,
14,
12,
11,
9,
12,
17,
8,
9,
16,
12,
8,
9,
7,
7,
6,
5,
10,
12,
9,
12,
10,
5,
8,
2,
8,
9,
0,
4,
5,
2,
3,
1,
4,
4,
2,
1,
2,
7,
1,
3,
0,
2,
0,
1,
1,
3,
2,
3,
0,
1,
0,
3,
0,
1,
0,
0,
1,
0,
0,
1,
1,
1,
1,
1,
0,
0,
0,
0,
0,
0,
1,
0,
1,
0,
1,
0,
1,
0,
0,
1,
0,
0,
0,
0,
0,
0,
0,
0,
0,
0,
0,
0,
0,
0,
0,
0,
0,
0,
0,
1,
0,
0,
0,
0,
0,
0,
0,
0,
0,
0,
0,
0,
0,
0,
0,
0,
0,
0,
0,
0,
0,
0,
0,
0,
0,
0,
0,
0,
0,
0,
0,
#ENDOFDATA   :

File: V std.msa
#FORMAT      : EMSA/MAS Spectral Data File
#VERSION     : 1.0
#TITLE       : V std
#DATE        : 20-FEB-2025
#TIME        : 16:44
#OWNER       : Unknown
#NPOINTS     : 4096
#NCOLUMNS    : 1
#XUNITS      : eV
#YUNITS      : counts
#DATATYPE    : Y
#XPERCHAN    : 9.99778
#OFFSET      : 1.69135
#BEAMKV      : 20
#SIGNALTYPE  : EDS
#ELEVANGLE   : 35
#AZIMANGLE   : 0
#LIVETIME    : 959.57
#REALTIME    : 1052.52
#PROBECUR    : 1.04967
#TAUWIND     : 0
#TDEADLYR    : 0
#TACTLYR     : 0.045
#TALWIND     : 0.025
#CHOFFSET    : 0.0
#XLABEL      : Energy (eV)
#YLABEL      : Counts
#EDSDET      : SD
##SPECIMEN   : V std
##D2STDCMP   : V,(V:100.0)
##DET_HASH   : 12273538-fd48-a23f-0a19-f1e6fa85caef
##CALIB_HASH : 6abaa72c-aa41-8738-0be9-f592914732f3
##WORKING    : 15.0 mm
##SAMPLE     : <BulkSample id="1">\n<mOrientation id="2">\n<double>0.0</double>\n<double>0.0</double>\n<double>-1.0</double>\n</mOrientation>\n</BulkSample>
##MULTISPEC  : 1.20227
##DET_NAME   : EDAX All
##DET_MODE   : MediumLE
#SPECTRUM    :
101,
1451,
30435,
272436,
51985,
9375,
11455,
13238,
16228,
18799,
20565,
22583,
24576,
24945,
22413,
22780,
22510,
22054,
21694,
21096,
20280,
19695,
20071,
27167,
18086,
17567,
17425,
16632,
16092,
15732,
15708,
15197,
14229,
14475,
21913,
874490,
324791,
14137,
44012,
152520,
8850,
7319,
7820,
7261,
7279,
7509,
7952,
6855,
6864,
6591,
6504,
6300,
6099,
6493,
5930,
5702,
5445,
5393,
5302,
5219,
5053,
4953,
4836,
4698,
4516,
4347,
4225,
4119,
4084,
3900,
4595,
6146,
3814,
3539,
4044,
3387,
3138,
3076,
3097,
2837,
2702,
2635,
2573,
2371,
2383,
2296,
2265,
2061,
2024,
1894,
1893,
1816,
1627,
1628,
1551,
1546,
1360,
1348,
1342,
1222,
1213,
1111,
1047,
1055,
948,
912,
904,
819,
796,
724,
766,
708,
684,
552,
566,
533,
498,
408,
450,
386,
358,
379,
298,
290,
250,
259,
251,
229,
238,
196,
174,
146,
134,
130,
99,
93,
85,
83,
58,
54,
33,
15,
14,
4,
6,
8,
6,
2,
3,
8,
3,
2,
3,
2,
2,
3,
6,
2,
5,
4,
0,
3,
0,
3,
3,
0,
2,
3,
0,
1,
1,
2,
0,
1,
0,
0,
1,
1,
1,
1,
0,
0,
0,
0,
1,
0,
0,
0,
0,
0,
0,
2,
1,
1,
0,
1,
0,
0,
1,
0,
0,
0,
0,
0,
0,
0,
0,
0,
0,
1,
0,
0,
1,
0,
1,
0,
0,
0,
0,
0,
1,
0,
0,
0,
0,
0,
0,
0,
0,
0,
0,
0,
0,
0,
0,
0,
0,
0,
0,
0,
0,
0,
0,
0,
0,
0,
0,
0,
0,
0,
0,
0,
0,
0,
0,
0,
0,
0,
0,
0,
0,
0,
0,
0,
0,
0,
0,
0,
0,
0,
0,
0,
0,
0,
0,
0,
0,
0,
0,
0,
0,
0,
0,
0,
0,
0,
0,
0,
0,
0,
0,
0,
0,
0,
#ENDOFDATA   :