Folder: spex_quant/N132962/Standards/20 keV (part 2)

File: C std.msa
#FORMAT      : EMSA/MAS Spectral Data File
#VERSION     : 1.0
#TITLE       : C std
#DATE        : 19-MAR-2025
#TIME        : 21:50
#OWNER       : Unknown
#NPOINTS     : 4096
#NCOLUMNS    : 1
#XUNITS      : eV
#YUNITS      : counts
#DATATYPE    : Y
#XPERCHAN    : 9.99778
#OFFSET      : 1.69135
#BEAMKV      : 20
#SIGNALTYPE  : EDS
#ELEVANGLE   : 35
#AZIMANGLE   : 0
#LIVETIME    : 1439.86
#REALTIME    : 1505.41
#PROBECUR    : 1.03427
#TAUWIND     : 0
#TDEADLYR    : 0
#TACTLYR     : 0.045
#TALWIND     : 0.025
#CHOFFSET    : 0.0
#XLABEL      : Energy (eV)
#YLABEL      : Counts
#EDSDET      : SD
##SPECIMEN   : C std
##D2STDCMP   : C,(C:100.0)
##DET_HASH   : 12273538-fd48-a23f-0a19-f1e6fa85caef
##CALIB_HASH : 6abaa72c-aa41-8738-0be9-f592914732f3
##WORKING    : 15.0 mm
##SAMPLE     : <BulkSample id="1">\n<mOrientation id="2">\n<double>0.0</double>\n<double>0.0</double>\n<double>-1.0</double>\n</mOrientation>\n</BulkSample>
##MULTISPEC  : 1.63967
##DET_NAME   : EDAX All
##DET_MODE   : MediumLE
#SPECTRUM    :
137,
6004,
2662746,
3627,
13740,
6837,
9556,
12320,
13569,
15306,
15888,
15638,
15500,
14613,
12191,
11432,
10887,
9977,
9434,
8895,
8392,
7849,
7465,
6960,
6717,
6306,
6152,
5755,
5473,
5204,
4880,
4709,
4404,
4233,
4026,
3969,
3650,
3652,
3389,
3236,
3182,
3084,
2846,
2758,
2570,
2608,
2560,
2408,
2237,
2180,
2145,
1943,
1918,
2035,
1888,
1679,
1698,
1953,
1799,
1441,
1429,
1583,
1578,
1346,
1279,
1167,
1137,
1079,
1095,
1045,
979,
886,
872,
859,
853,
750,
757,
729,
699,
674,
645,
595,
587,
572,
513,
476,
487,
472,
446,
422,
418,
386,
375,
346,
302,
272,
303,
282,
262,
262,
250,
215,
177,
186,
175,
166,
172,
155,
140,
126,
128,
125,
116,
92,
106,
86,
76,
90,
88,
63,
52,
59,
63,
45,
55,
41,
33,
34,
41,
30,
8,
28,
23,
16,
20,
13,
10,
9,
4,
10,
4,
6,
2,
0,
0,
0,
0,
0,
0,
0,
0,
1,
0,
1,
0,
0,
0,
0,
0,
0,
0,
0,
0,
0,
0,
0,
0,
0,
0,
0,
0,
0,
0,
0,
0,
0,
0,
0,
0,
0,
0,
0,
0,
0,
0,
0,
0,
0,
0,
0,
0,
0,
0,
0,
0,
0,
0,
0,
0,
0,
0,
0,
0,
0,
0,
0,
0,
0,
0,
0,
0,
0,
0,
0,
0,
0,
0,
0,
0,
0,
0,
0,
0,
0,
0,
0,
0,
0,
0,
0,
0,
0,
0,
0,
0,
0,
0,
0,
0,
0,
0,
0,
0,
0,
0,
0,
0,
0,
0,
0,
0,
0,
0,
0,
0,
0,
0,
0,
0,
0,
0,
0,
0,
0,
0,
0,
0,
0,
0,
0,
0,
0,
0,
0,
0,
0,
0,
0,
0,
0,
0,
0,
0,
0,
0,
0,
0,
0,
0,
0,
0,
0,
0,
0,
#ENDOFDATA   :

File: CaF2 std.msa
#FORMAT      : EMSA/MAS Spectral Data File
#VERSION     : 1.0
#TITLE       : CaF2 std
#DATE        : 12-SEP-2025
#TIME        : 09:46
#OWNER       : Unknown
#NPOINTS     : 4096
#NCOLUMNS    : 1
#XUNITS      : eV
#YUNITS      : counts
#DATATYPE    : Y
#XPERCHAN    : 9.99778
#OFFSET      : 1.69135
#BEAMKV      : 20
#SIGNALTYPE  : EDS
#ELEVANGLE   : 35
#AZIMANGLE   : 0
#LIVETIME    : 1200.62
#REALTIME    : 1296.22
#PROBECUR    : 1.23853
#TAUWIND     : 0
#TDEADLYR    : 0
#TACTLYR     : 0.045
#TALWIND     : 0.025
#CHOFFSET    : 0.0
#XLABEL      : Energy (eV)
#YLABEL      : Counts
#EDSDET      : SD
##SPECIMEN   : CaF2 std
##D2STDCMP   : CaF2,(F:48.6667),(Ca:51.3333)
##DET_HASH   : 12273538-fd48-a23f-0a19-f1e6fa85caef
##CALIB_HASH : 6abaa72c-aa41-8738-0be9-f592914732f3
##WORKING    : 15.0 mm
##SAMPLE     : <BulkSample id="1">\n<mOrientation id="2">\n<double>0.0</double>\n<double>0.0</double>\n<double>-1.0</double>\n</mOrientation>\n</BulkSample>
##MULTISPEC  : 0.89472
##DET_NAME   : EDAX All
##DET_MODE   : MediumLE
#SPECTRUM    :
1695,
2864,
131398,
11225,
25729,
451764,
12401,
14280,
17298,
21274,
23747,
24574,
26880,
27802,
38536,
23385,
24261,
22577,
21797,
20994,
20198,
19755,
19560,
19023,
17861,
27053,
839854,
306622,
53139,
131338,
10627,
12195,
10044,
9700,
9577,
9319,
9079,
8894,
8820,
8656,
8405,
8048,
7763,
7701,
7267,
7497,
7770,
6787,
6576,
6258,
6324,
6084,
6362,
7608,
5764,
5729,
5222,
5027,
4906,
4704,
4618,
4366,
4132,
4152,
4024,
3775,
3643,
3614,
3471,
3301,
3287,
3190,
3091,
3039,
2777,
2756,
2641,
2602,
2401,
2425,
2248,
2226,
2130,
2000,
1961,
1936,
1732,
1639,
1634,
1567,
1478,
1382,
1364,
1324,
1280,
1247,
1169,
1134,
1036,
992,
937,
884,
868,
787,
739,
700,
704,
622,
625,
545,
500,
528,
477,
435,
402,
377,
368,
338,
322,
324,
261,
287,
245,
241,
195,
189,
194,
154,
157,
117,
93,
100,
103,
65,
75,
45,
52,
42,
35,
25,
12,
14,
3,
5,
3,
3,
3,
4,
1,
3,
0,
1,
0,
2,
1,
1,
1,
1,
0,
1,
0,
1,
1,
1,
1,
2,
0,
0,
1,
0,
0,
0,
1,
0,
0,
0,
0,
0,
1,
1,
0,
1,
0,
0,
1,
0,
0,
0,
0,
1,
0,
0,
0,
0,
0,
0,
0,
2,
1,
0,
0,
0,
0,
0,
0,
1,
0,
0,
0,
0,
0,
0,
0,
0,
0,
0,
0,
0,
0,
0,
0,
0,
0,
0,
0,
0,
0,
0,
0,
0,
0,
0,
0,
0,
0,
0,
0,
0,
0,
0,
0,
0,
0,
0,
0,
0,
0,
0,
0,
0,
0,
0,
0,
0,
0,
0,
0,
0,
0,
0,
0,
0,
0,
0,
0,
0,
0,
0,
0,
0,
0,
0,
0,
0,
0,
0,
0,
0,
0,
0,
0,
0,
0,
0,
0,
0,
0,
0,
0,
0,
0,
0,
0,
0,
#ENDOFDATA   :

File: Cd std.msa
#FORMAT      : EMSA/MAS Spectral Data File
#VERSION     : 1.0
#TITLE       : G588 Cd[0][all]+G588 Cd[1][all]+G588 Cd[2][all]
#NPOINTS     : 4096
#NCOLUMNS    : 1
#XUNITS      : eV
#YUNITS      : counts
#DATATYPE    : Y
#SIGNALTYPE  : EDS
#XLABEL      : Energy (eV)
#YLABEL      : Counts
#XPERCHAN -eV: 9.99778
#OFFSET   -eV: 1.69135
#CHOFFSET    : 0
#OWNER       : Unknown
#ELEVANGLE   : 35
#BEAMKV   -kV: 20
#LIVETIME  -s: 719.877
#REALTIME  -s: 800.851
#PROBECUR -nA: 1.04548
##WORKING -mm: 15
##D2STDCMP   : Cd,(Cd:100.0000),5.000
#SPECTRUM    :
86,
4859,
84623,
25831,
14917,
13863,
14439,
16213,
18760,
21064,
34109,
28412,
28270,
29358,
26065,
26257,
26135,
26535,
26464,
31719,
50541,
36755,
390813,
191119,
290786,
96836,
30658,
24974,
20362,
13237,
12263,
12059,
12367,
12285,
12269,
12227,
12363,
12167,
12014,
12098,
11611,
11450,
11679,
11094,
11275,
12084,
13014,
10792,
10396,
10282,
9938,
9607,
9193,
9745,
9051,
8877,
8428,
8283,
8185,
7908,
7701,
7446,
7512,
7303,
6800,
6810,
6664,
6261,
6309,
6178,
6020,
5801,
5659,
5522,
5418,
5271,
5160,
4980,
4771,
4509,
4408,
4267,
4174,
4001,
3836,
3687,
3629,
3519,
3429,
3258,
3199,
3095,
2831,
2837,
2706,
2436,
2409,
2312,
2155,
2180,
2097,
2013,
1928,
1788,
1746,
1631,
1580,
1506,
1477,
1332,
1278,
1288,
1190,
1070,
1079,
923,
937,
877,
827,
755,
795,
709,
685,
624,
609,
504,
530,
441,
421,
390,
350,
337,
267,
247,
249,
200,
165,
149,
148,
96,
82,
54,
37,
18,
10,
16,
11,
11,
8,
7,
11,
7,
8,
11,
11,
9,
5,
3,
3,
6,
7,
6,
5,
3,
1,
0,
2,
2,
4,
2,
3,
4,
3,
0,
0,
0,
0,
2,
4,
0,
2,
2,
3,
1,
4,
1,
0,
2,
2,
1,
0,
2,
0,
2,
1,
0,
2,
1,
1,
0,
2,
1,
0,
0,
0,
0,
0,
1,
1,
0,
0,
1,
0,
1,
2,
0,
0,
0,
0,
0,
0,
0,
0,
0,
0,
0,
0,
0,
0,
0,
1,
0,
0,
1,
1,
0,
0,
0,
0,
0,
0,
0,
0,
0,
0,
0,
0,
0,
0,
0,
0,
0,
0,
0,
0,
0,
0,
0,
0,
0,
0,
0,
0,
0,
0,
0,
0,
0,
0,
0,
0,
0,
0,
0,
0,
0,
0,
0,
0,
0,
0,
0,
0,
0,
0,
0,
0,
0,
0,
0,
0,
0,
0,
0,
#ENDOFDATA   :

File: CeAl2 std.msa
#FORMAT      : EMSA/MAS Spectral Data File
#VERSION     : 1.0
#TITLE       : CeAl2 std
#DATE        : 24-FEB-2025
#TIME        : 09:13
#OWNER       : Unknown
#NPOINTS     : 4096
#NCOLUMNS    : 1
#XUNITS      : eV
#YUNITS      : counts
#DATATYPE    : Y
#XPERCHAN    : 9.99778
#OFFSET      : 1.69135
#BEAMKV      : 20
#SIGNALTYPE  : EDS
#ELEVANGLE   : 35
#AZIMANGLE   : 0
#LIVETIME    : 1919.68
#REALTIME    : 2088.466
#PROBECUR    : 1.02857
#TAUWIND     : 0
#TDEADLYR    : 0
#TACTLYR     : 0.045
#TALWIND     : 0.025
#CHOFFSET    : 0.0
#XLABEL      : Energy (eV)
#YLABEL      : Counts
#EDSDET      : SD
##SPECIMEN   : CeAl2 std
##D2STDCMP   : CeAl2,(Al:27.8047),(Ce:72.1953)
##DET_HASH   : 12273538-fd48-a23f-0a19-f1e6fa85caef
##CALIB_HASH : 6abaa72c-aa41-8738-0be9-f592914732f3
##WORKING    : 15.0 mm
##SAMPLE     : <BulkSample id="1">\n<mOrientation id="2">\n<double>0.0</double>\n<double>0.0</double>\n<double>-1.0</double>\n</mOrientation>\n</BulkSample>
##MULTISPEC  : 1.1531
##DET_NAME   : EDAX All
##DET_MODE   : MediumLE
#SPECTRUM    :
217,
3157,
83880,
50054,
77417,
224061,
170899,
49665,
60023,
43907,
108722,
368248,
38768,
41401,
38704,
40990,
42928,
44224,
44408,
44876,
44915,
45693,
49824,
44305,
43656,
45083,
43020,
41948,
40917,
40044,
45958,
57001,
38524,
41183,
294846,
423058,
37994,
143051,
288170,
57840,
158402,
40994,
28521,
68025,
33496,
42938,
29139,
23653,
21133,
20820,
20641,
20006,
19619,
20275,
19438,
18428,
17948,
18210,
17654,
16986,
16719,
16229,
15901,
15475,
15068,
14451,
14416,
13848,
14101,
13900,
13156,
12705,
12734,
12244,
11789,
11491,
11119,
10613,
10492,
10044,
9601,
9426,
9100,
8855,
8402,
8290,
7803,
7749,
7235,
7103,
6921,
6802,
6401,
6183,
5862,
5602,
5284,
5164,
5021,
4606,
4528,
4381,
4050,
3950,
3696,
3530,
3461,
3299,
3176,
2939,
2747,
2721,
2430,
2333,
2310,
2018,
2018,
1888,
1776,
1594,
1515,
1514,
1463,
1350,
1232,
1098,
1015,
930,
866,
810,
748,
638,
639,
532,
449,
426,
365,
327,
254,
203,
136,
110,
53,
28,
27,
36,
20,
19,
13,
18,
15,
16,
13,
13,
10,
15,
14,
9,
10,
13,
6,
8,
8,
13,
7,
6,
2,
7,
3,
15,
7,
7,
3,
2,
3,
4,
4,
9,
2,
6,
8,
7,
4,
2,
2,
5,
3,
2,
2,
4,
1,
1,
3,
5,
1,
3,
0,
0,
2,
2,
0,
0,
0,
1,
1,
1,
2,
3,
0,
2,
0,
0,
1,
1,
1,
1,
0,
1,
0,
0,
0,
0,
0,
0,
0,
0,
0,
0,
0,
0,
0,
1,
1,
0,
0,
0,
0,
0,
0,
0,
0,
0,
0,
0,
0,
0,
0,
1,
0,
0,
0,
0,
0,
0,
0,
0,
0,
0,
0,
0,
0,
0,
0,
0,
0,
0,
0,
0,
0,
0,
0,
0,
0,
0,
0,
0,
0,
0,
0,
0,
0,
0,
0,
0,
0,
0,
0,
0,
0,
0,
0,
0,
0,
0,
#ENDOFDATA   :

File: Celsian std.msa
#FORMAT      : EMSA/MAS Spectral Data File
#VERSION     : 1.0
#TITLE       : Celsian std
#DATE        : 24-FEB-2025
#TIME        : 10:39
#OWNER       : Unknown
#NPOINTS     : 4096
#NCOLUMNS    : 1
#XUNITS      : eV
#YUNITS      : counts
#DATATYPE    : Y
#XPERCHAN    : 9.99778
#OFFSET      : 1.69135
#BEAMKV      : 20
#SIGNALTYPE  : EDS
#ELEVANGLE   : 35
#AZIMANGLE   : 0
#LIVETIME    : 959.261
#REALTIME    : 1028.39
#PROBECUR    : 1.03242
#TAUWIND     : 0
#TDEADLYR    : 0
#TACTLYR     : 0.045
#TALWIND     : 0.025
#CHOFFSET    : 0.0
#XLABEL      : Energy (eV)
#YLABEL      : Counts
#EDSDET      : SD
##SPECIMEN   : Celsian std
##D2STDCMP   : Celsian,(O:34.0901),(Al:14.3728),(Si:14.9606),(Ba:36.5764)
##DET_HASH   : 12273538-fd48-a23f-0a19-f1e6fa85caef
##CALIB_HASH : 6abaa72c-aa41-8738-0be9-f592914732f3
##WORKING    : 15.0 mm
##SAMPLE     : <BulkSample id="1">\n<mOrientation id="2">\n<double>0.0</double>\n<double>0.0</double>\n<double>-1.0</double>\n</mOrientation>\n</BulkSample>
##MULTISPEC  : 2.98893
##DET_NAME   : EDAX All
##DET_MODE   : MediumLE
#SPECTRUM    :
117,
1039,
29774,
32678,
258735,
16538,
18208,
23100,
16396,
17927,
39876,
135316,
125496,
65777,
14804,
14784,
16232,
15393,
15537,
15895,
15280,
15071,
15030,
15761,
18338,
14252,
13909,
13037,
18066,
13306,
12348,
24353,
195765,
13889,
46192,
62351,
16571,
38918,
9713,
13692,
14016,
11055,
9803,
7921,
7189,
7215,
7484,
6790,
6442,
6238,
6282,
5884,
5818,
6011,
5649,
5360,
5246,
5322,
5076,
5055,
4623,
4626,
4462,
4319,
4251,
4091,
3949,
3790,
3759,
3725,
3518,
3394,
3352,
3209,
3135,
2981,
2847,
2802,
2808,
2634,
2494,
2458,
2326,
2336,
2080,
2091,
2013,
2018,
1868,
1857,
1665,
1612,
1648,
1535,
1453,
1408,
1267,
1286,
1225,
1157,
1115,
1095,
1048,
968,
914,
909,
826,
751,
786,
697,
638,
662,
569,
526,
507,
476,
504,
367,
427,
392,
360,
323,
347,
283,
281,
226,
225,
216,
194,
171,
145,
136,
139,
107,
107,
74,
84,
84,
52,
58,
38,
14,
10,
3,
3,
3,
3,
3,
4,
0,
3,
2,
2,
1,
1,
1,
4,
2,
1,
3,
1,
1,
1,
1,
1,
0,
0,
1,
2,
0,
1,
0,
0,
1,
0,
2,
1,
0,
0,
0,
0,
1,
1,
0,
0,
0,
1,
0,
1,
0,
0,
0,
0,
0,
0,
1,
0,
0,
0,
1,
0,
0,
0,
0,
1,
0,
0,
0,
0,
0,
1,
0,
0,
0,
0,
0,
0,
1,
0,
0,
0,
0,
0,
0,
0,
0,
0,
0,
0,
0,
0,
0,
0,
0,
0,
0,
0,
0,
0,
0,
0,
0,
0,
0,
0,
1,
0,
0,
0,
0,
0,
0,
0,
0,
0,
0,
0,
0,
0,
0,
0,
0,
0,
0,
0,
0,
0,
0,
0,
0,
0,
0,
0,
0,
0,
0,
0,
0,
0,
0,
0,
0,
0,
0,
0,
0,
0,
0,
0,
0,
0,
0,
0,
0,
#ENDOFDATA   :

File: Co std.msa
#FORMAT      : EMSA/MAS Spectral Data File
#VERSION     : 1.0
#TITLE       : Co std
#DATE        : 21-FEB-2025
#TIME        : 09:44
#OWNER       : Unknown
#NPOINTS     : 4096
#NCOLUMNS    : 1
#XUNITS      : eV
#YUNITS      : counts
#DATATYPE    : Y
#XPERCHAN    : 9.99778
#OFFSET      : 1.69135
#BEAMKV      : 20
#SIGNALTYPE  : EDS
#ELEVANGLE   : 35
#AZIMANGLE   : 0
#LIVETIME    : 1193.39
#REALTIME    : 1301
#PROBECUR    : 1.05789
#TAUWIND     : 0
#TDEADLYR    : 0
#TACTLYR     : 0.045
#TALWIND     : 0.025
#CHOFFSET    : 0.0
#XLABEL      : Energy (eV)
#YLABEL      : Counts
#EDSDET      : SD
##SPECIMEN   : Co std
##D2STDCMP   : Co,(Co:100.0),8.9
##DET_HASH   : 12273538-fd48-a23f-0a19-f1e6fa85caef
##CALIB_HASH : 6abaa72c-aa41-8738-0be9-f592914732f3
##WORKING    : 15.0 mm
##SAMPLE     : <BulkSample id="1">\n<mOrientation id="2">\n<double>0.0</double>\n<double>0.0</double>\n<double>-1.0</double>\n</mOrientation>\n</BulkSample>
##MULTISPEC  : 1.16555
##DET_NAME   : EDAX All
##DET_MODE   : MediumLE
#SPECTRUM    :
132,
1682,
41508,
31865,
58063,
372971,
111790,
12332,
15110,
18364,
21792,
24588,
24913,
26272,
24386,
25371,
26112,
26217,
25955,
26418,
25441,
25201,
24798,
24062,
23639,
22660,
22224,
21603,
20847,
20459,
19561,
19029,
19020,
17971,
17888,
16966,
16601,
18832,
16335,
17266,
14964,
14544,
14805,
13914,
13278,
13777,
16084,
13164,
18091,
508981,
393852,
13237,
11154,
13304,
57919,
86169,
8829,
7113,
7173,
7294,
7205,
6895,
6471,
6446,
6132,
6142,
6054,
5860,
5720,
5547,
5368,
5402,
5112,
4980,
4717,
4692,
4604,
4328,
4272,
4150,
4030,
3861,
3645,
3500,
3467,
3199,
3176,
3198,
2960,
2914,
2749,
2613,
2593,
2382,
2272,
2326,
2213,
2096,
2136,
2672,
1907,
1693,
1590,
1606,
1707,
1492,
1387,
1256,
1130,
1116,
1121,
1068,
943,
932,
892,
814,
705,
694,
652,
627,
561,
589,
511,
449,
413,
415,
373,
341,
307,
285,
270,
234,
224,
196,
170,
154,
126,
99,
87,
69,
71,
44,
24,
16,
14,
9,
14,
8,
11,
4,
6,
8,
9,
5,
4,
5,
9,
6,
2,
8,
4,
8,
9,
3,
4,
7,
3,
3,
4,
3,
2,
1,
5,
3,
4,
3,
4,
4,
1,
4,
1,
1,
4,
1,
1,
1,
0,
1,
1,
0,
0,
1,
2,
1,
0,
1,
0,
1,
0,
1,
2,
0,
0,
0,
0,
0,
0,
0,
0,
0,
0,
0,
0,
0,
0,
0,
0,
0,
0,
0,
0,
0,
0,
0,
0,
0,
0,
0,
0,
0,
0,
0,
0,
0,
0,
0,
0,
0,
0,
0,
0,
0,
0,
0,
0,
0,
0,
0,
0,
0,
0,
0,
0,
0,
0,
0,
0,
0,
0,
0,
0,
0,
0,
0,
0,
0,
0,
0,
0,
0,
0,
0,
0,
0,
0,
0,
0,
0,
0,
0,
0,
0,
0,
0,
0,
0,
0,
0,
0,
0,
0,
0,
0,
0,
#ENDOFDATA   :

File: Cr std.msa
#FORMAT      : EMSA/MAS Spectral Data File
#VERSION     : 1.0
#TITLE       : Cr std
#DATE        : 20-FEB-2025
#TIME        : 16:50
#OWNER       : Unknown
#NPOINTS     : 4096
#NCOLUMNS    : 1
#XUNITS      : eV
#YUNITS      : counts
#DATATYPE    : Y
#XPERCHAN    : 9.99778
#OFFSET      : 1.69135
#BEAMKV      : 20
#SIGNALTYPE  : EDS
#ELEVANGLE   : 35
#AZIMANGLE   : 0
#LIVETIME    : 1199.09
#REALTIME    : 1312.2
#PROBECUR    : 1.04967
#TAUWIND     : 0
#TDEADLYR    : 0
#TACTLYR     : 0.045
#TALWIND     : 0.025
#CHOFFSET    : 0.0
#XLABEL      : Energy (eV)
#YLABEL      : Counts
#EDSDET      : SD
##SPECIMEN   : Cr std
##D2STDCMP   : Cr,(Cr:100.0),5.0
##DET_HASH   : 12273538-fd48-a23f-0a19-f1e6fa85caef
##CALIB_HASH : 6abaa72c-aa41-8738-0be9-f592914732f3
##WORKING    : 15.0 mm
##SAMPLE     : <BulkSample id="1">\n<mOrientation id="2">\n<double>0.0</double>\n<double>0.0</double>\n<double>-1.0</double>\n</mOrientation>\n</BulkSample>
##MULTISPEC  : 1.13889
##DET_NAME   : EDAX All
##DET_MODE   : MediumLE
#SPECTRUM    :
141,
1722,
34953,
75048,
535674,
12827,
13382,
15363,
18834,
21982,
24928,
26984,
31258,
31260,
26770,
27602,
27539,
27302,
26662,
26095,
25702,
24568,
24220,
23216,
22817,
22385,
28286,
21322,
20301,
19648,
19948,
18465,
18274,
17875,
16987,
16910,
16462,
19941,
368829,
1000221,
19136,
17193,
115634,
88407,
9062,
9721,
12021,
8559,
8546,
8333,
8513,
8213,
7915,
8218,
7713,
7229,
7122,
6950,
6866,
6684,
6493,
6274,
6299,
5944,
5962,
5628,
5533,
5367,
5304,
5088,
4917,
4807,
4736,
4454,
4394,
4258,
4368,
5923,
4851,
3771,
3721,
4081,
3523,
3218,
3069,
3014,
2875,
2808,
2752,
2563,
2431,
2355,
2130,
2105,
2045,
1951,
1827,
1815,
1803,
1652,
1636,
1524,
1424,
1364,
1304,
1225,
1176,
1138,
1039,
1002,
893,
921,
742,
746,
757,
710,
666,
621,
567,
531,
503,
458,
460,
377,
332,
350,
323,
302,
271,
245,
223,
198,
189,
183,
135,
125,
111,
102,
80,
67,
39,
35,
27,
12,
7,
8,
16,
4,
7,
12,
8,
8,
3,
5,
6,
4,
4,
4,
3,
5,
2,
5,
6,
1,
3,
1,
1,
3,
2,
1,
4,
1,
1,
2,
1,
0,
2,
0,
0,
0,
2,
0,
0,
0,
0,
0,
1,
2,
1,
0,
1,
1,
1,
1,
0,
0,
0,
0,
0,
0,
0,
0,
0,
0,
1,
0,
0,
0,
0,
1,
0,
0,
0,
0,
0,
0,
0,
0,
0,
0,
0,
0,
0,
0,
0,
0,
0,
0,
0,
0,
0,
0,
0,
0,
0,
0,
0,
0,
0,
0,
0,
0,
0,
0,
0,
0,
0,
0,
0,
0,
0,
0,
0,
0,
0,
0,
0,
0,
0,
0,
0,
0,
0,
0,
0,
0,
0,
0,
0,
0,
0,
0,
0,
0,
0,
0,
0,
0,
0,
0,
0,
0,
0,
0,
0,
0,
0,
0,
0,
0,
0,
0,
0,
0,
#ENDOFDATA   :

File: Cryolite std.msa
#FORMAT      : EMSA/MAS Spectral Data File
#VERSION     : 1.0
#TITLE       : Cryolite std
#DATE        : 24-FEB-2025
#TIME        : 10:46
#OWNER       : Unknown
#NPOINTS     : 4096
#NCOLUMNS    : 1
#XUNITS      : eV
#YUNITS      : counts
#DATATYPE    : Y
#XPERCHAN    : 9.99778
#OFFSET      : 1.69135
#BEAMKV      : 20
#SIGNALTYPE  : EDS
#ELEVANGLE   : 35
#AZIMANGLE   : 0
#LIVETIME    : 959.356
#REALTIME    : 1035.75
#PROBECUR    : 1.03242
#TAUWIND     : 0
#TDEADLYR    : 0
#TACTLYR     : 0.045
#TALWIND     : 0.025
#CHOFFSET    : 0.0
#XLABEL      : Energy (eV)
#YLABEL      : Counts
#EDSDET      : SD
##SPECIMEN   : Cryolite std
##D2STDCMP   : Cryolite,(F:54.2963),(Na:32.8517),(Al:12.8519)
##DET_HASH   : 12273538-fd48-a23f-0a19-f1e6fa85caef
##CALIB_HASH : 6abaa72c-aa41-8738-0be9-f592914732f3
##WORKING    : 15.0 mm
##SAMPLE     : <BulkSample id="1">\n<mOrientation id="2">\n<double>0.0</double>\n<double>0.0</double>\n<double>-1.0</double>\n</mOrientation>\n</BulkSample>
##MULTISPEC  : 4.55737
##DET_NAME   : EDAX All
##DET_MODE   : MediumLE
#SPECTRUM    :
112,
1445,
22372,
18224,
54221,
1372904,
10796,
169637,
42305,
9428,
29817,
107246,
13213,
9637,
8682,
10686,
9264,
9228,
9736,
8678,
8582,
8382,
8013,
7755,
7526,
7120,
7034,
6789,
6335,
6329,
6090,
5834,
5543,
5392,
5088,
5101,
4801,
4723,
4543,
4468,
4110,
4056,
3884,
3689,
3578,
3534,
3610,
3224,
3069,
3107,
2939,
2792,
2656,
2737,
2584,
2524,
2369,
2484,
2395,
2100,
2063,
2129,
2159,
1960,
1851,
1734,
1695,
1658,
1572,
1500,
1471,
1336,
1297,
1286,
1191,
1165,
1170,
1048,
1093,
1073,
968,
875,
933,
879,
797,
814,
789,
778,
725,
681,
656,
596,
629,
529,
505,
514,
497,
440,
433,
379,
407,
356,
361,
312,
301,
292,
274,
269,
251,
224,
200,
197,
188,
141,
143,
160,
153,
121,
113,
131,
122,
99,
96,
94,
91,
84,
66,
62,
66,
45,
49,
51,
38,
36,
31,
29,
15,
14,
15,
11,
8,
8,
4,
2,
0,
0,
0,
1,
0,
0,
0,
0,
0,
0,
0,
0,
0,
0,
0,
0,
0,
1,
0,
0,
0,
0,
0,
0,
0,
1,
0,
1,
0,
0,
0,
0,
0,
0,
0,
0,
1,
0,
0,
0,
0,
0,
0,
0,
0,
0,
0,
0,
0,
0,
0,
0,
0,
0,
0,
0,
0,
0,
0,
0,
0,
1,
0,
0,
0,
0,
0,
0,
0,
0,
0,
0,
0,
0,
0,
0,
0,
0,
0,
0,
0,
0,
0,
0,
0,
0,
0,
0,
0,
0,
0,
0,
0,
0,
0,
0,
1,
0,
0,
0,
0,
0,
0,
0,
0,
0,
0,
0,
0,
0,
0,
0,
0,
0,
0,
0,
0,
0,
0,
0,
0,
0,
0,
0,
0,
0,
0,
0,
0,
0,
0,
0,
0,
0,
0,
0,
0,
0,
0,
0,
0,
0,
0,
0,
0,
0,
0,
0,
0,
0,
#ENDOFDATA   :

File: CsBr std.msa
#FORMAT      : EMSA/MAS Spectral Data File
#VERSION     : 1.0
#TITLE       : CsBr std
#DATE        : 12-SEP-2025
#TIME        : 11:03
#OWNER       : Unknown
#NPOINTS     : 4096
#NCOLUMNS    : 1
#XUNITS      : eV
#YUNITS      : counts
#DATATYPE    : Y
#XPERCHAN    : 9.99778
#OFFSET      : 1.69135
#BEAMKV      : 20
#SIGNALTYPE  : EDS
#ELEVANGLE   : 35
#AZIMANGLE   : 0
#LIVETIME    : 2395.44
#REALTIME    : 2660.15
#PROBECUR    : 1.23977
#TAUWIND     : 0
#TDEADLYR    : 0
#TACTLYR     : 0.045
#TALWIND     : 0.025
#CHOFFSET    : 0.0
#XLABEL      : Energy (eV)
#YLABEL      : Counts
#EDSDET      : SD
##SPECIMEN   : CsBr std
##D2STDCMP   : CsBr,(Br:37.5475),(Cs:62.4525),5.0
##DET_HASH   : 12273538-fd48-a23f-0a19-f1e6fa85caef
##CALIB_HASH : 6abaa72c-aa41-8738-0be9-f592914732f3
##WORKING    : 15.0 mm
##SAMPLE     : <BulkSample id="1">\n<mOrientation id="2">\n<double>0.0</double>\n<double>0.0</double>\n<double>-1.0</double>\n</mOrientation>\n</BulkSample>
##MULTISPEC  : 1.73358
##DET_NAME   : EDAX All
##DET_MODE   : MediumLE
#SPECTRUM    :
292,
6324,
112055,
66161,
285803,
159543,
69853,
87039,
65998,
105743,
191428,
819016,
71084,
69118,
62746,
66914,
70043,
71562,
82024,
73953,
75013,
76863,
73609,
73940,
71633,
71443,
71501,
109533,
71525,
74384,
346786,
726901,
82722,
639611,
166868,
209617,
84252,
62790,
105059,
56959,
62735,
47040,
41402,
40448,
40603,
41083,
44410,
37946,
37449,
36457,
36071,
34925,
34308,
35318,
33494,
31893,
31094,
30494,
29802,
29777,
28627,
28385,
27672,
26998,
26524,
25276,
24932,
23908,
23976,
22818,
22420,
21589,
21175,
20561,
19631,
19230,
18685,
18187,
17521,
17171,
16346,
16068,
15713,
15603,
36329,
112681,
32500,
13294,
12502,
12084,
11672,
11384,
10942,
10432,
14833,
22388,
12113,
8968,
8155,
7711,
7548,
7165,
6825,
6443,
6222,
6033,
5743,
5540,
5216,
5069,
4670,
4458,
4249,
4052,
3804,
3686,
3544,
3283,
3121,
2834,
2800,
2510,
2453,
2237,
2051,
1989,
1804,
1659,
1528,
1310,
1251,
1166,
1070,
881,
808,
733,
634,
539,
479,
407,
275,
193,
121,
60,
56,
48,
38,
39,
43,
51,
34,
32,
47,
31,
28,
40,
18,
29,
34,
18,
23,
22,
21,
15,
16,
14,
21,
10,
9,
15,
27,
9,
10,
10,
15,
6,
16,
13,
11,
15,
12,
9,
16,
10,
5,
11,
6,
9,
4,
10,
8,
7,
6,
4,
6,
4,
6,
3,
4,
1,
3,
4,
3,
2,
0,
1,
5,
2,
3,
2,
2,
4,
1,
1,
0,
1,
2,
2,
1,
3,
0,
0,
1,
3,
0,
0,
0,
0,
0,
0,
0,
0,
0,
0,
0,
0,
0,
0,
0,
1,
0,
0,
1,
0,
0,
0,
0,
0,
0,
0,
0,
0,
0,
0,
0,
0,
0,
0,
0,
0,
0,
0,
0,
1,
0,
0,
0,
0,
0,
0,
0,
0,
0,
0,
0,
0,
0,
0,
0,
0,
0,
0,
0,
0,
0,
0,
0,
0,
0,
0,
0,
0,
0,
0,
#ENDOFDATA   :

File: CsI std.msa
#FORMAT      : EMSA/MAS Spectral Data File
#VERSION     : 1.0
#TITLE       : CsI std
#DATE        : 21-MAR-2025
#TIME        : 14:29
#OWNER       : Unknown
#NPOINTS     : 4096
#NCOLUMNS    : 1
#XUNITS      : eV
#YUNITS      : counts
#DATATYPE    : Y
#XPERCHAN    : 9.99778
#OFFSET      : 1.69135
#BEAMKV      : 20
#SIGNALTYPE  : EDS
#ELEVANGLE   : 35
#AZIMANGLE   : 0
#LIVETIME    : 958.41
#REALTIME    : 1057.4
#PROBECUR    : 1.02926
#TAUWIND     : 0
#TDEADLYR    : 0
#TACTLYR     : 0.045
#TALWIND     : 0.025
#CHOFFSET    : 0.0
#XLABEL      : Energy (eV)
#YLABEL      : Counts
#EDSDET      : SD
##SPECIMEN   : CsI std
##D2STDCMP   : CsI,(I:48.8451),(Cs:51.1549)
##DET_HASH   : 12273538-fd48-a23f-0a19-f1e6fa85caef
##CALIB_HASH : 6abaa72c-aa41-8738-0be9-f592914732f3
##WORKING    : 15.0 mm
##SAMPLE     : <BulkSample id="1">\n<mOrientation id="2">\n<double>0.0</double>\n<double>0.0</double>\n<double>-1.0</double>\n</mOrientation>\n</BulkSample>
##MULTISPEC  : 0.917527
##DET_NAME   : EDAX All
##DET_MODE   : MediumLE
#SPECTRUM    :
102,
7895,
74079,
53481,
144079,
32778,
26166,
26818,
18316,
20491,
23402,
26038,
28618,
30557,
27584,
29520,
31508,
30344,
33782,
30268,
30271,
30063,
29197,
28862,
28832,
40960,
28149,
48020,
364513,
46508,
256621,
262607,
75067,
175186,
62676,
59967,
33451,
21351,
29754,
17655,
19680,
15380,
14022,
13821,
13713,
14258,
14750,
13321,
12992,
13033,
12853,
12281,
12440,
12768,
11994,
11432,
11455,
11506,
11438,
11012,
10691,
10709,
10363,
9957,
9685,
9418,
9129,
8893,
8905,
8440,
8229,
8051,
7709,
7737,
7477,
7089,
6967,
6707,
6595,
6473,
6158,
5964,
5722,
5509,
5377,
5193,
5011,
4848,
4786,
4497,
4329,
4175,
4114,
3997,
3710,
3674,
3386,
3309,
3181,
3090,
2811,
2766,
2646,
2635,
2448,
2308,
2203,
2103,
1976,
1967,
1918,
1702,
1678,
1587,
1535,
1385,
1381,
1175,
1192,
1053,
1081,
913,
915,
845,
786,
781,
747,
655,
640,
580,
560,
458,
383,
374,
339,
305,
228,
215,
177,
143,
110,
69,
42,
27,
11,
14,
25,
15,
13,
11,
13,
12,
10,
22,
11,
14,
8,
9,
11,
7,
6,
4,
9,
4,
4,
2,
6,
6,
5,
7,
4,
0,
3,
2,
3,
1,
7,
3,
3,
1,
1,
5,
1,
2,
5,
3,
0,
2,
4,
4,
1,
2,
1,
2,
2,
1,
1,
3,
2,
3,
0,
1,
3,
0,
0,
1,
1,
0,
0,
0,
0,
1,
0,
1,
1,
0,
0,
0,
0,
0,
0,
0,
0,
0,
0,
0,
0,
0,
0,
1,
0,
0,
0,
0,
0,
0,
0,
0,
0,
0,
0,
0,
1,
0,
0,
0,
0,
0,
0,
0,
0,
0,
0,
0,
0,
0,
0,
0,
0,
0,
0,
0,
0,
0,
0,
0,
0,
0,
0,
0,
0,
0,
0,
0,
0,
0,
0,
0,
0,
0,
0,
0,
0,
0,
0,
0,
0,
0,
0,
0,
0,
0,
0,
0,
#ENDOFDATA   :

File: Cu std.msa
#FORMAT      : EMSA/MAS Spectral Data File
#VERSION     : 1.0
#TITLE       : Cu std
#DATE        : 21-FEB-2025
#TIME        : 09:32
#OWNER       : Unknown
#NPOINTS     : 4096
#NCOLUMNS    : 1
#XUNITS      : eV
#YUNITS      : counts
#DATATYPE    : Y
#XPERCHAN    : 9.99778
#OFFSET      : 1.69135
#BEAMKV      : 20
#SIGNALTYPE  : EDS
#ELEVANGLE   : 35
#AZIMANGLE   : 0
#LIVETIME    : 719.216
#REALTIME    : 797.4771
#PROBECUR    : 1.05789
#TAUWIND     : 0
#TDEADLYR    : 0
#TACTLYR     : 0.045
#TALWIND     : 0.025
#CHOFFSET    : 0.0
#XLABEL      : Energy (eV)
#YLABEL      : Counts
#EDSDET      : SD
##SPECIMEN   : Cu std
##D2STDCMP   : Cu,(Cu:100.0)
##DET_HASH   : 12273538-fd48-a23f-0a19-f1e6fa85caef
##CALIB_HASH : 6abaa72c-aa41-8738-0be9-f592914732f3
##WORKING    : 15.0 mm
##SAMPLE     : <BulkSample id="1">\n<mOrientation id="2">\n<double>0.0</double>\n<double>0.0</double>\n<double>-1.0</double>\n</mOrientation>\n</BulkSample>
##MULTISPEC  : 12.9057
##DET_NAME   : EDAX All
##DET_MODE   : MediumLE
#SPECTRUM    :
79,
1149,
41318,
17152,
30915,
37151,
194985,
395458,
8486,
9973,
11635,
13291,
15946,
18845,
14308,
15004,
15616,
15723,
16047,
16418,
15485,
15635,
15207,
15026,
14874,
14303,
13950,
13548,
13319,
12660,
12758,
12309,
11995,
11469,
11221,
11027,
10708,
10091,
10062,
9978,
9493,
9151,
9221,
8721,
8317,
9608,
9728,
7524,
7565,
7408,
7236,
6861,
6690,
6981,
6659,
6836,
10643,
242852,
160014,
6652,
5646,
5479,
6071,
28222,
37139,
4740,
3723,
3718,
3673,
3732,
3734,
3471,
3330,
3142,
3150,
3018,
2995,
2781,
2709,
2603,
2555,
2542,
2480,
2383,
2282,
2138,
2132,
2021,
1910,
1862,
1808,
1703,
1686,
1580,
1557,
1522,
1442,
1450,
1281,
1281,
1221,
1129,
1073,
1024,
950,
941,
881,
842,
817,
747,
742,
684,
644,
594,
645,
742,
554,
458,
407,
426,
383,
438,
379,
311,
275,
276,
239,
240,
246,
188,
173,
150,
159,
122,
126,
110,
84,
65,
58,
55,
31,
27,
16,
5,
3,
7,
4,
9,
7,
4,
4,
5,
5,
4,
3,
4,
6,
7,
3,
7,
3,
4,
1,
6,
4,
3,
2,
1,
4,
4,
2,
3,
2,
0,
2,
0,
1,
5,
0,
1,
2,
1,
2,
2,
1,
2,
1,
0,
1,
0,
0,
1,
1,
0,
0,
0,
0,
0,
0,
1,
0,
1,
0,
1,
0,
0,
0,
0,
0,
0,
0,
0,
0,
0,
0,
0,
0,
0,
0,
0,
0,
0,
0,
0,
1,
0,
0,
0,
0,
0,
0,
0,
0,
0,
0,
0,
0,
0,
0,
0,
0,
0,
0,
0,
0,
0,
0,
0,
0,
0,
0,
0,
0,
0,
0,
0,
0,
0,
0,
0,
0,
0,
0,
0,
0,
0,
0,
0,
0,
0,
0,
0,
0,
0,
0,
0,
0,
0,
0,
0,
0,
0,
0,
0,
0,
0,
0,
0,
0,
0,
0,
0,
0,
0,
#ENDOFDATA   :