Folder: spex_quant/N132962/Standards/20 keV (part 8)

File: W std.msa
#FORMAT      : EMSA/MAS Spectral Data File
#VERSION     : 1.0
#TITLE       : W std
#DATE        : 20-FEB-2025
#TIME        : 17:08
#OWNER       : Unknown
#NPOINTS     : 4096
#NCOLUMNS    : 1
#XUNITS      : eV
#YUNITS      : counts
#DATATYPE    : Y
#XPERCHAN    : 9.99778
#OFFSET      : 1.69135
#BEAMKV      : 20
#SIGNALTYPE  : EDS
#ELEVANGLE   : 35
#AZIMANGLE   : 0
#LIVETIME    : 1188.81
#REALTIME    : 1350.53
#PROBECUR    : 1.04992
#TAUWIND     : 0
#TDEADLYR    : 0
#TACTLYR     : 0.045
#TALWIND     : 0.025
#CHOFFSET    : 0.0
#XLABEL      : Energy (eV)
#YLABEL      : Counts
#EDSDET      : SD
##SPECIMEN   : W std
##D2STDCMP   : W,(W:100.0),5.0
##DET_HASH   : 12273538-fd48-a23f-0a19-f1e6fa85caef
##CALIB_HASH : 6abaa72c-aa41-8738-0be9-f592914732f3
##WORKING    : 15.0 mm
##SAMPLE     : <BulkSample id="1">\n<mOrientation id="2">\n<double>0.0</double>\n<double>0.0</double>\n<double>-1.0</double>\n</mOrientation>\n</BulkSample>
##MULTISPEC  : 1.27787
##DET_NAME   : EDAX All
##DET_MODE   : MediumLE
#SPECTRUM    :
136,
3374,
47740,
27873,
39103,
44015,
49688,
54834,
59868,
66360,
171900,
72714,
176059,
1479363,
39857,
35758,
31364,
31798,
27764,
27750,
28673,
28737,
29311,
30156,
30232,
32962,
34219,
30977,
30907,
30991,
30936,
30797,
30299,
30123,
29557,
29695,
29412,
28795,
28974,
29392,
27765,
27136,
27291,
26342,
25378,
27210,
30717,
24292,
23690,
23074,
23478,
22709,
24889,
32477,
21844,
20676,
20083,
19877,
20291,
60698,
252953,
37520,
19710,
17903,
16441,
16002,
15825,
16672,
34438,
100226,
42952,
57138,
23766,
15187,
11932,
11257,
11090,
10731,
11021,
10710,
17830,
19199,
11167,
13000,
10032,
8506,
8627,
7766,
7474,
7276,
7066,
6865,
6626,
6273,
6102,
5849,
5675,
5438,
5308,
5108,
4826,
4692,
4540,
4246,
4223,
3917,
3810,
3562,
3404,
3362,
3246,
2967,
2879,
2728,
2573,
2469,
2288,
2263,
2104,
1967,
1970,
1805,
1690,
1652,
1468,
1417,
1258,
1220,
1187,
1119,
1003,
836,
809,
749,
664,
532,
565,
464,
375,
324,
304,
193,
121,
78,
40,
45,
33,
42,
40,
40,
29,
39,
23,
23,
22,
26,
20,
23,
21,
18,
19,
19,
24,
14,
25,
12,
13,
16,
10,
11,
14,
9,
13,
15,
6,
12,
8,
11,
12,
16,
15,
10,
9,
11,
17,
9,
9,
7,
5,
8,
7,
4,
4,
8,
6,
4,
4,
5,
5,
2,
1,
4,
4,
1,
4,
4,
0,
2,
1,
1,
1,
1,
6,
1,
2,
1,
2,
1,
2,
0,
0,
0,
1,
0,
1,
1,
0,
1,
0,
1,
1,
2,
0,
1,
0,
0,
0,
0,
0,
0,
0,
1,
0,
0,
0,
0,
0,
0,
0,
0,
1,
0,
0,
0,
0,
0,
0,
0,
0,
0,
0,
0,
0,
0,
0,
0,
0,
0,
0,
0,
0,
0,
0,
1,
0,
0,
0,
0,
0,
1,
0,
0,
0,
0,
0,
0,
0,
0,
0,
0,
0,
0,
0,
0,
#ENDOFDATA   :

File: Y std.msa
#FORMAT      : EMSA/MAS Spectral Data File
#VERSION     : 1.0
#TITLE       : G588 Y[0][all]+G588 Y[1][all]+G588 Y[2][all]+G588 Y[3][all]+G588 Y[4][all]
#NPOINTS     : 4096
#NCOLUMNS    : 1
#XUNITS      : eV
#YUNITS      : counts
#DATATYPE    : Y
#SIGNALTYPE  : EDS
#XLABEL      : Energy (eV)
#YLABEL      : Counts
#XPERCHAN -eV: 9.99778
#OFFSET   -eV: 1.69135
#CHOFFSET    : 0
#OWNER       : Unknown
#ELEVANGLE   : 35
#BEAMKV   -kV: 20
#LIVETIME  -s: 1199.75
#REALTIME  -s: 1334.55
#PROBECUR -nA: 0.83562
##WORKING -mm: 15
##D2STDCMP   : Y,(Y:100.0000)
#SPECTRUM    :
136,
17878,
48243,
18774,
41113,
44885,
37238,
41559,
46575,
51395,
55529,
59300,
159555,
209443,
1755774,
142933,
21179,
24520,
19509,
20315,
20926,
21774,
21948,
22740,
22471,
22783,
23572,
25090,
28152,
22643,
21530,
21352,
21262,
20901,
20469,
20213,
19748,
19118,
18949,
18914,
18217,
17759,
17426,
17032,
16422,
16725,
18164,
15465,
14977,
14473,
14466,
14182,
13396,
13837,
13145,
12363,
12006,
11669,
11960,
11272,
10803,
10534,
10341,
9974,
9653,
9224,
9388,
8830,
8749,
8727,
8093,
8101,
7809,
7436,
7401,
7089,
6840,
6684,
6410,
6380,
6166,
5730,
5475,
5344,
5233,
5094,
4721,
4631,
4370,
4215,
4143,
4093,
3838,
3757,
3562,
3400,
3194,
3026,
2984,
2830,
2768,
2563,
2508,
2384,
2236,
2965,
10692,
11747,
3044,
1808,
1696,
1529,
1532,
1426,
1409,
1244,
1207,
1119,
1218,
2402,
2051,
1142,
865,
710,
701,
637,
580,
531,
487,
485,
414,
366,
354,
297,
301,
264,
193,
183,
148,
117,
93,
57,
42,
15,
19,
12,
10,
6,
15,
6,
6,
9,
7,
7,
9,
5,
2,
5,
5,
7,
5,
2,
8,
4,
6,
3,
1,
2,
4,
1,
3,
3,
1,
1,
1,
0,
4,
1,
1,
0,
2,
3,
0,
0,
6,
1,
0,
3,
2,
1,
1,
1,
3,
2,
1,
1,
1,
0,
5,
0,
1,
2,
2,
0,
1,
1,
1,
0,
1,
0,
1,
1,
1,
0,
1,
1,
0,
0,
0,
0,
0,
0,
2,
0,
0,
0,
0,
0,
0,
0,
0,
0,
0,
0,
0,
0,
0,
0,
0,
0,
0,
0,
0,
0,
0,
0,
0,
0,
0,
0,
0,
0,
0,
0,
0,
0,
0,
0,
0,
0,
0,
0,
0,
0,
0,
0,
0,
0,
0,
0,
0,
0,
0,
0,
0,
0,
0,
0,
0,
0,
0,
0,
0,
0,
0,
0,
0,
0,
0,
0,
0,
0,
0,
0,
#ENDOFDATA   :

File: Zn std.msa
#FORMAT      : EMSA/MAS Spectral Data File
#VERSION     : 1.0
#TITLE       : Zn std
#DATE        : 21-FEB-2025
#TIME        : 09:27
#OWNER       : Unknown
#NPOINTS     : 4096
#NCOLUMNS    : 1
#XUNITS      : eV
#YUNITS      : counts
#DATATYPE    : Y
#XPERCHAN    : 9.99778
#OFFSET      : 1.69135
#BEAMKV      : 20
#SIGNALTYPE  : EDS
#ELEVANGLE   : 35
#AZIMANGLE   : 0
#LIVETIME    : 958.995
#REALTIME    : 1074.96
#PROBECUR    : 1.05789
#TAUWIND     : 0
#TDEADLYR    : 0
#TACTLYR     : 0.045
#TALWIND     : 0.025
#CHOFFSET    : 0.0
#XLABEL      : Energy (eV)
#YLABEL      : Counts
#EDSDET      : SD
##SPECIMEN   : Zn std
##D2STDCMP   : Zn,(Zn:100.0)
##DET_HASH   : 12273538-fd48-a23f-0a19-f1e6fa85caef
##CALIB_HASH : 6abaa72c-aa41-8738-0be9-f592914732f3
##WORKING    : 15.0 mm
##SAMPLE     : <BulkSample id="1">\n<mOrientation id="2">\n<double>0.0</double>\n<double>0.0</double>\n<double>-1.0</double>\n</mOrientation>\n</BulkSample>
##MULTISPEC  : 2.37943
##DET_NAME   : EDAX All
##DET_MODE   : MediumLE
#SPECTRUM    :
111,
1512,
36469,
21120,
35481,
45497,
138378,
1725323,
36624,
12475,
14109,
16243,
18624,
20562,
22477,
21475,
20008,
20183,
20696,
21469,
20669,
20426,
20148,
20088,
19751,
19219,
19204,
18553,
18022,
17558,
17397,
16722,
16110,
15812,
15248,
14813,
14401,
14185,
13765,
13635,
12634,
12510,
12200,
11734,
11356,
11940,
12859,
10478,
10037,
10730,
10050,
9481,
9061,
9447,
8721,
8638,
8462,
8013,
7979,
8165,
9975,
167989,
283023,
12924,
6751,
6535,
6775,
8430,
47280,
28239,
5087,
4659,
4502,
4376,
4310,
4314,
4201,
3893,
3762,
3782,
3563,
3464,
3327,
3179,
3170,
2968,
2946,
2767,
2728,
2604,
2561,
2430,
2363,
2284,
2113,
2070,
1911,
1919,
1765,
1788,
1571,
1565,
1453,
1445,
1346,
1250,
1184,
1146,
1116,
1092,
1017,
912,
934,
847,
790,
810,
739,
663,
663,
577,
533,
556,
513,
683,
601,
364,
352,
338,
323,
300,
300,
257,
226,
190,
166,
142,
117,
115,
100,
67,
59,
43,
23,
13,
10,
9,
12,
8,
7,
8,
6,
6,
4,
2,
4,
8,
5,
4,
5,
9,
9,
3,
4,
5,
4,
4,
4,
2,
2,
2,
5,
0,
4,
3,
1,
2,
5,
2,
3,
2,
3,
0,
5,
1,
1,
2,
2,
1,
1,
2,
1,
0,
0,
2,
0,
0,
1,
1,
1,
1,
1,
1,
0,
0,
0,
0,
1,
1,
0,
0,
1,
1,
0,
0,
1,
1,
0,
0,
0,
0,
0,
0,
0,
0,
0,
0,
0,
0,
0,
0,
0,
0,
0,
0,
0,
1,
0,
0,
0,
0,
0,
0,
0,
0,
0,
0,
0,
0,
0,
0,
0,
0,
0,
0,
0,
0,
0,
0,
0,
0,
0,
0,
0,
0,
0,
0,
0,
0,
0,
0,
0,
0,
0,
0,
0,
0,
0,
0,
0,
0,
0,
0,
0,
0,
0,
0,
0,
0,
0,
0,
0,
0,
0,
0,
#ENDOFDATA   :

File: ZnS std.msa
#FORMAT      : EMSA/MAS Spectral Data File
#VERSION     : 1.0
#TITLE       : ZnS std
#DATE        : 19-MAR-2025
#TIME        : 19:42
#OWNER       : Unknown
#NPOINTS     : 4096
#NCOLUMNS    : 1
#XUNITS      : eV
#YUNITS      : counts
#DATATYPE    : Y
#XPERCHAN    : 9.99778
#OFFSET      : 1.69135
#BEAMKV      : 20
#SIGNALTYPE  : EDS
#ELEVANGLE   : 35
#AZIMANGLE   : 0
#LIVETIME    : 1918.45
#REALTIME    : 2111.09
#PROBECUR    : 1.03407
#TAUWIND     : 0
#TDEADLYR    : 0
#TACTLYR     : 0.045
#TALWIND     : 0.025
#CHOFFSET    : 0.0
#XLABEL      : Energy (eV)
#YLABEL      : Counts
#EDSDET      : SD
##SPECIMEN   : ZnS std
##D2STDCMP   : ZnS,(S:32.896),(Zn:67.104)
##DET_HASH   : 12273538-fd48-a23f-0a19-f1e6fa85caef
##CALIB_HASH : 6abaa72c-aa41-8738-0be9-f592914732f3
##WORKING    : 15.0 mm
##SAMPLE     : <BulkSample id="1">\n<mOrientation id="2">\n<double>0.0</double>\n<double>0.0</double>\n<double>-1.0</double>\n</mOrientation>\n</BulkSample>
##MULTISPEC  : 1.03951
##DET_NAME   : EDAX All
##DET_MODE   : MediumLE
#SPECTRUM    :
194,
3367,
54524,
26850,
76115,
64378,
167629,
1914228,
62231,
27612,
32057,
36084,
39798,
42716,
42244,
44720,
453803,
360550,
80846,
29913,
30221,
30388,
30543,
31527,
35075,
29863,
28503,
27939,
27540,
27136,
26220,
25807,
25300,
26372,
23966,
23139,
22418,
21958,
21444,
20695,
20120,
19496,
19126,
18613,
17801,
17943,
18386,
16691,
16104,
16426,
15317,
14775,
14239,
14844,
13907,
13215,
12858,
12652,
12473,
12591,
14153,
204521,
348066,
17778,
10315,
9881,
9921,
12173,
58554,
34994,
8116,
7465,
7032,
7001,
6918,
6729,
6756,
6419,
6833,
6212,
5775,
5359,
5165,
4983,
4775,
4785,
4507,
4381,
4237,
3983,
3769,
3719,
3525,
3431,
3371,
3188,
2971,
2872,
2743,
2673,
2464,
2433,
2294,
2174,
2081,
1924,
1841,
1690,
1708,
1575,
1443,
1408,
1317,
1272,
1218,
1181,
1051,
956,
951,
935,
802,
765,
698,
862,
697,
543,
520,
464,
447,
428,
416,
343,
268,
257,
256,
189,
173,
148,
123,
115,
80,
43,
36,
14,
6,
13,
11,
8,
8,
15,
12,
8,
6,
7,
7,
6,
8,
6,
6,
8,
12,
4,
9,
4,
1,
6,
3,
4,
6,
1,
5,
4,
3,
3,
5,
5,
4,
5,
5,
4,
3,
5,
2,
0,
1,
1,
0,
4,
3,
2,
2,
1,
1,
1,
0,
2,
1,
1,
1,
1,
1,
0,
0,
0,
0,
0,
0,
0,
0,
0,
0,
0,
0,
0,
0,
0,
0,
0,
0,
0,
0,
0,
0,
0,
0,
0,
0,
0,
0,
0,
0,
0,
0,
0,
0,
0,
0,
0,
0,
0,
0,
0,
0,
0,
0,
0,
0,
0,
0,
0,
0,
0,
0,
0,
0,
0,
0,
0,
0,
0,
0,
0,
0,
0,
0,
0,
0,
0,
0,
0,
0,
0,
0,
0,
0,
0,
0,
0,
0,
0,
0,
0,
0,
0,
0,
0,
0,
0,
0,
0,
0,
0,
0,
0,
#ENDOFDATA   :

File: Zr std.msa
#FORMAT      : EMSA/MAS Spectral Data File
#VERSION     : 1.0
#TITLE       : G588 Zr[0][all]+G588 Zr[1][all]+G588 Zr[2][all]+G588 Zr[3][all]+G588 Zr[4][all]
#NPOINTS     : 4096
#NCOLUMNS    : 1
#XUNITS      : eV
#YUNITS      : counts
#DATATYPE    : Y
#SIGNALTYPE  : EDS
#XLABEL      : Energy (eV)
#YLABEL      : Counts
#XPERCHAN -eV: 9.99778
#OFFSET   -eV: 1.69135
#CHOFFSET    : 0
#OWNER       : Unknown
#ELEVANGLE   : 35
#BEAMKV   -kV: 20
#LIVETIME  -s: 1196.38
#REALTIME  -s: 1330.81
#PROBECUR -nA: 0.83562
##WORKING -mm: 15
##D2STDCMP   : Zr,(Zr:100.0000),5.000
#SPECTRUM    :
155,
34979,
72262,
24702,
30364,
32477,
35522,
40106,
45454,
49369,
52933,
56479,
60505,
141061,
352759,
1334694,
133739,
22151,
27425,
19218,
19941,
20951,
21345,
21534,
22228,
22363,
22580,
22533,
22556,
26343,
25958,
21943,
21076,
20835,
20598,
20067,
19737,
19400,
19237,
19326,
18174,
17854,
17721,
17098,
16667,
17325,
19443,
15679,
15032,
14913,
14917,
14082,
13648,
14353,
13387,
12523,
12269,
12096,
11758,
11372,
11178,
10639,
10531,
10248,
9889,
9624,
9410,
9277,
8936,
8765,
8472,
8164,
7789,
7558,
7569,
7245,
7117,
6838,
6555,
6386,
6143,
5924,
5924,
5525,
5355,
5192,
5070,
4785,
4515,
4486,
4364,
4083,
3971,
3785,
3577,
3457,
3341,
3298,
3032,
2874,
2765,
2687,
2555,
2438,
2267,
2220,
2138,
1942,
1933,
1842,
1738,
2376,
5957,
4645,
1647,
1243,
1222,
1142,
995,
964,
975,
919,
820,
813,
776,
871,
1395,
840,
667,
479,
447,
391,
350,
315,
312,
244,
234,
159,
141,
109,
83,
70,
35,
16,
13,
16,
9,
13,
9,
6,
4,
10,
10,
5,
7,
8,
5,
5,
3,
10,
1,
5,
6,
3,
2,
2,
2,
5,
3,
2,
6,
2,
1,
6,
0,
2,
3,
2,
0,
2,
7,
3,
4,
4,
2,
5,
2,
1,
0,
1,
0,
2,
3,
0,
2,
0,
2,
1,
3,
2,
0,
2,
0,
0,
0,
1,
1,
0,
1,
0,
0,
3,
0,
0,
0,
0,
1,
1,
0,
1,
1,
0,
0,
1,
0,
0,
0,
0,
0,
0,
1,
0,
0,
0,
0,
0,
1,
0,
0,
0,
0,
0,
0,
0,
0,
0,
0,
0,
0,
0,
0,
1,
0,
0,
0,
0,
0,
0,
0,
0,
0,
0,
0,
0,
0,
0,
0,
0,
0,
0,
0,
0,
0,
0,
0,
0,
0,
1,
0,
0,
0,
0,
0,
0,
0,
0,
0,
0,
0,
0,
0,
0,
0,
0,
#ENDOFDATA   :