Folder: spex_quant/N132962/Standards/20 keV (part 5)

File: Mg std.msa
#FORMAT      : EMSA/MAS Spectral Data File
#VERSION     : 1.0
#TITLE       : Mg std
#DATE        : 20-FEB-2025
#TIME        : 15:55
#OWNER       : Unknown
#NPOINTS     : 4096
#NCOLUMNS    : 1
#XUNITS      : eV
#YUNITS      : counts
#DATATYPE    : Y
#XPERCHAN    : 9.99778
#OFFSET      : 1.69135
#BEAMKV      : 20
#SIGNALTYPE  : EDS
#ELEVANGLE   : 35
#AZIMANGLE   : 0
#LIVETIME    : 717.655
#REALTIME    : 821.106
#PROBECUR    : 1.04796
#TAUWIND     : 0
#TDEADLYR    : 0
#TACTLYR     : 0.045
#TALWIND     : 0.025
#CHOFFSET    : 0.0
#XLABEL      : Energy (eV)
#YLABEL      : Counts
#EDSDET      : SD
##SPECIMEN   : Mg std
##D2STDCMP   : Mg,(Mg:100.0)
##DET_HASH   : 12273538-fd48-a23f-0a19-f1e6fa85caef
##CALIB_HASH : 6abaa72c-aa41-8738-0be9-f592914732f3
##WORKING    : 15.0 mm
##SAMPLE     : <BulkSample id="1">\n<mOrientation id="2">\n<double>0.0</double>\n<double>0.0</double>\n<double>-1.0</double>\n</mOrientation>\n</BulkSample>
##MULTISPEC  : 22.2775
##DET_NAME   : EDAX All
##DET_MODE   : MediumLE
#SPECTRUM    :
77,
786,
13449,
10392,
22553,
25636,
24250,
30582,
62458,
4048605,
6328,
5353,
6161,
6763,
6604,
6672,
7242,
8558,
43911,
6892,
6780,
6708,
6616,
6427,
6450,
6029,
5986,
6015,
5777,
5475,
5351,
5167,
4931,
4814,
4703,
4586,
4246,
4230,
4091,
4037,
3761,
3540,
3844,
3487,
3228,
3333,
3409,
3021,
2922,
2873,
2825,
2564,
2597,
2470,
2372,
2330,
2224,
2081,
2081,
1975,
1865,
1852,
1785,
1725,
1715,
1545,
1524,
1470,
1482,
1442,
1410,
1377,
1266,
1218,
1191,
1140,
1056,
1004,
1039,
987,
929,
956,
860,
862,
810,
739,
728,
695,
676,
620,
635,
549,
563,
493,
491,
503,
471,
425,
419,
425,
387,
327,
339,
313,
266,
245,
257,
248,
239,
226,
192,
226,
173,
165,
183,
158,
153,
133,
125,
114,
112,
112,
103,
70,
83,
81,
54,
72,
53,
52,
30,
39,
38,
31,
34,
23,
16,
15,
17,
7,
9,
7,
6,
1,
2,
0,
0,
0,
0,
0,
0,
0,
1,
0,
0,
0,
0,
1,
1,
0,
0,
0,
2,
0,
0,
0,
1,
0,
0,
0,
1,
0,
0,
0,
1,
0,
0,
0,
0,
0,
0,
0,
0,
0,
0,
0,
0,
1,
0,
0,
0,
0,
0,
0,
0,
0,
0,
0,
0,
0,
0,
0,
0,
0,
0,
0,
0,
0,
0,
0,
0,
0,
0,
0,
0,
0,
0,
0,
0,
0,
0,
0,
0,
0,
0,
0,
0,
0,
0,
0,
0,
0,
0,
0,
0,
0,
0,
0,
0,
0,
0,
0,
0,
0,
0,
0,
0,
0,
0,
0,
0,
0,
0,
0,
0,
0,
0,
0,
0,
0,
0,
0,
0,
0,
0,
0,
0,
0,
0,
0,
0,
0,
0,
0,
0,
0,
0,
0,
0,
0,
0,
0,
0,
0,
0,
0,
0,
0,
0,
0,
0,
0,
0,
0,
#ENDOFDATA   :

File: MgO std.msa
#FORMAT      : EMSA/MAS Spectral Data File
#VERSION     : 1.0
#TITLE       : MgO std
#DATE        : 12-SEP-2025
#TIME        : 09:52
#OWNER       : Unknown
#NPOINTS     : 4096
#NCOLUMNS    : 1
#XUNITS      : eV
#YUNITS      : counts
#DATATYPE    : Y
#XPERCHAN    : 9.99778
#OFFSET      : 1.69135
#BEAMKV      : 20
#SIGNALTYPE  : EDS
#ELEVANGLE   : 35
#AZIMANGLE   : 0
#LIVETIME    : 1201.11
#REALTIME    : 1317.08
#PROBECUR    : 1.23903
#TAUWIND     : 0
#TDEADLYR    : 0
#TACTLYR     : 0.045
#TALWIND     : 0.025
#CHOFFSET    : 0.0
#XLABEL      : Energy (eV)
#YLABEL      : Counts
#EDSDET      : SD
##SPECIMEN   : MgO std
##D2STDCMP   : MgO,(O:39.6964),(Mg:60.3036),5.0
##DET_HASH   : 12273538-fd48-a23f-0a19-f1e6fa85caef
##CALIB_HASH : 6abaa72c-aa41-8738-0be9-f592914732f3
##WORKING    : 15.0 mm
##SAMPLE     : <BulkSample id="1">\n<mOrientation id="2">\n<double>0.0</double>\n<double>0.0</double>\n<double>-1.0</double>\n</mOrientation>\n</BulkSample>
##MULTISPEC  : 1.20315
##DET_NAME   : EDAX All
##DET_MODE   : MediumLE
#SPECTRUM    :
113,
1269,
32711,
45074,
424845,
16310,
18901,
26952,
56579,
3334450,
12237,
11062,
13937,
18831,
12149,
12775,
13157,
13778,
27844,
13163,
12552,
12484,
12031,
11454,
11043,
10787,
10853,
10265,
10122,
9645,
9217,
8974,
8401,
8042,
7932,
7890,
7409,
7109,
6896,
6697,
6312,
6090,
6031,
5640,
5716,
5549,
5823,
4963,
4707,
4654,
4673,
4434,
4184,
4151,
4004,
3769,
3568,
3475,
3349,
3293,
3128,
3004,
2921,
2941,
2813,
2658,
2514,
2444,
2391,
2303,
2154,
2107,
2053,
1907,
1887,
1792,
1740,
1646,
1622,
1499,
1503,
1467,
1394,
1377,
1259,
1188,
1090,
1117,
1008,
1063,
978,
968,
896,
813,
827,
761,
703,
716,
671,
698,
587,
534,
515,
505,
505,
445,
468,
404,
362,
365,
335,
347,
303,
307,
257,
260,
259,
197,
186,
192,
150,
133,
158,
154,
130,
114,
112,
80,
87,
84,
91,
65,
62,
47,
43,
40,
31,
21,
29,
9,
14,
11,
7,
1,
0,
2,
1,
1,
0,
0,
1,
0,
0,
0,
0,
0,
1,
0,
0,
0,
0,
0,
0,
1,
1,
0,
0,
0,
1,
1,
0,
0,
0,
0,
0,
0,
0,
0,
0,
1,
0,
0,
0,
0,
0,
1,
0,
0,
0,
0,
0,
0,
0,
0,
0,
0,
0,
0,
0,
0,
0,
0,
0,
0,
0,
0,
0,
0,
0,
0,
0,
0,
0,
0,
0,
0,
0,
0,
0,
0,
0,
0,
0,
0,
0,
0,
0,
0,
0,
0,
0,
0,
0,
0,
0,
0,
0,
0,
0,
0,
0,
0,
0,
0,
0,
0,
0,
0,
0,
0,
0,
0,
0,
0,
0,
0,
0,
0,
0,
0,
0,
0,
0,
0,
0,
0,
0,
0,
0,
0,
0,
0,
0,
0,
0,
0,
0,
0,
0,
0,
0,
0,
0,
0,
0,
0,
0,
0,
0,
0,
0,
0,
0,
0,
#ENDOFDATA   :

File: Mn std.msa
#FORMAT      : EMSA/MAS Spectral Data File
#VERSION     : 1.0
#TITLE       : Mn std
#DATE        : 20-FEB-2025
#TIME        : 16:56
#OWNER       : Unknown
#NPOINTS     : 4096
#NCOLUMNS    : 1
#XUNITS      : eV
#YUNITS      : counts
#DATATYPE    : Y
#XPERCHAN    : 9.99778
#OFFSET      : 1.69135
#BEAMKV      : 20
#SIGNALTYPE  : EDS
#ELEVANGLE   : 35
#AZIMANGLE   : 0
#LIVETIME    : 959.83
#REALTIME    : 1045.54
#PROBECUR    : 1.04967
#TAUWIND     : 0
#TDEADLYR    : 0
#TACTLYR     : 0.045
#TALWIND     : 0.025
#CHOFFSET    : 0.0
#XLABEL      : Energy (eV)
#YLABEL      : Counts
#EDSDET      : SD
##SPECIMEN   : Mn std
##D2STDCMP   : Mn,(Mn:100.0),5.0
##DET_HASH   : 12273538-fd48-a23f-0a19-f1e6fa85caef
##CALIB_HASH : 6abaa72c-aa41-8738-0be9-f592914732f3
##WORKING    : 15.0 mm
##SAMPLE     : <BulkSample id="1">\n<mOrientation id="2">\n<double>0.0</double>\n<double>0.0</double>\n<double>-1.0</double>\n</mOrientation>\n</BulkSample>
##MULTISPEC  : 5.3505
##DET_NAME   : EDAX All
##DET_MODE   : MediumLE
#SPECTRUM    :
121,
1581,
53344,
29939,
286611,
42918,
10639,
11717,
14286,
17071,
18705,
20619,
22469,
23673,
21450,
21728,
21994,
22224,
21721,
24725,
21053,
19974,
19262,
18881,
18417,
17684,
17366,
16550,
16337,
16978,
17818,
14739,
14295,
14134,
14263,
13396,
13181,
12448,
12415,
12436,
12846,
38695,
965391,
90794,
11158,
13639,
104331,
43834,
6759,
6595,
6748,
6620,
6376,
6650,
6183,
5934,
5701,
5732,
5735,
5525,
5153,
5218,
5055,
4850,
4731,
4688,
4525,
4292,
4244,
4163,
4083,
3976,
3825,
3753,
3674,
3526,
3448,
3332,
3214,
3030,
2989,
2784,
2742,
2853,
3824,
2961,
2371,
2357,
2414,
2296,
2023,
1901,
1876,
1772,
1700,
1679,
1631,
1466,
1418,
1420,
1266,
1280,
1150,
1205,
1030,
1036,
1013,
891,
843,
820,
800,
738,
705,
655,
589,
592,
532,
482,
420,
433,
397,
382,
378,
341,
330,
267,
273,
238,
255,
199,
189,
187,
187,
120,
115,
91,
94,
75,
50,
52,
33,
19,
22,
10,
3,
7,
6,
8,
9,
10,
7,
6,
3,
2,
4,
3,
4,
7,
7,
3,
2,
6,
4,
2,
8,
1,
1,
2,
1,
1,
0,
1,
2,
2,
1,
1,
2,
1,
1,
0,
0,
2,
1,
2,
1,
0,
1,
0,
0,
0,
0,
1,
1,
1,
0,
0,
0,
0,
0,
0,
0,
0,
0,
0,
0,
0,
0,
0,
0,
0,
0,
0,
0,
0,
0,
0,
0,
0,
0,
0,
0,
0,
1,
0,
0,
0,
0,
0,
0,
0,
0,
0,
0,
0,
0,
0,
0,
0,
0,
0,
0,
0,
0,
0,
0,
0,
0,
0,
0,
0,
0,
0,
0,
0,
0,
0,
0,
0,
0,
0,
0,
0,
0,
0,
0,
0,
0,
0,
0,
0,
0,
0,
0,
0,
0,
0,
0,
0,
0,
0,
0,
0,
0,
0,
0,
0,
0,
0,
0,
0,
0,
0,
0,
0,
#ENDOFDATA   :

File: Mo std.msa
#FORMAT      : EMSA/MAS Spectral Data File
#VERSION     : 1.0
#TITLE       : G588 Mo[0][all]+G588 Mo[1][all]+G588 Mo[2][all]+G588 Mo[3][all]+G588 Mo[4][all]
#NPOINTS     : 4096
#NCOLUMNS    : 1
#XUNITS      : eV
#YUNITS      : counts
#DATATYPE    : Y
#SIGNALTYPE  : EDS
#XLABEL      : Energy (eV)
#YLABEL      : Counts
#XPERCHAN -eV: 9.99778
#OFFSET   -eV: 1.69135
#CHOFFSET    : 0
#OWNER       : Unknown
#ELEVANGLE   : 35
#BEAMKV   -kV: 20
#LIVETIME  -s: 1200.91
#REALTIME  -s: 1339.29
#PROBECUR -nA: 1.04548
##WORKING -mm: 15
##D2STDCMP   : Mo,(Mo:100.0000)
#SPECTRUM    :
152,
44170,
41511,
16705,
58956,
32006,
31886,
35847,
41680,
45859,
49362,
52297,
54899,
56392,
78635,
83880,
838339,
928445,
151319,
32405,
28779,
20514,
20521,
20900,
21391,
21279,
21878,
22139,
22233,
22182,
22105,
22043,
22448,
25985,
23538,
21385,
20473,
20287,
20227,
19859,
19082,
18575,
18300,
18102,
17694,
17956,
19043,
16605,
15995,
15598,
15511,
15093,
14409,
15003,
14165,
13762,
13186,
12882,
12474,
12318,
11694,
11483,
11194,
10808,
10626,
10369,
10120,
9896,
9560,
9275,
9135,
8756,
8586,
8391,
8070,
7757,
7411,
7295,
7125,
6766,
6594,
6383,
6148,
5965,
5756,
5587,
5348,
5253,
4852,
4716,
4624,
4392,
4209,
4078,
3948,
3841,
3572,
3418,
3303,
3164,
2934,
2814,
2737,
2536,
2498,
2457,
2355,
2242,
2010,
2006,
1923,
1725,
1596,
1635,
1481,
1375,
1292,
1233,
1209,
1139,
1037,
968,
871,
859,
838,
737,
664,
638,
554,
520,
464,
421,
388,
360,
314,
293,
267,
206,
188,
134,
100,
74,
41,
28,
12,
5,
3,
9,
4,
9,
15,
11,
7,
7,
8,
7,
5,
7,
10,
4,
5,
3,
3,
2,
5,
5,
4,
4,
2,
3,
4,
0,
0,
3,
2,
1,
3,
1,
3,
1,
1,
2,
1,
4,
4,
3,
4,
2,
3,
1,
0,
1,
0,
2,
1,
2,
0,
0,
0,
2,
2,
0,
4,
2,
1,
1,
0,
0,
1,
1,
0,
0,
1,
0,
0,
0,
0,
0,
0,
0,
0,
0,
0,
0,
0,
0,
0,
0,
0,
0,
0,
0,
0,
0,
0,
0,
0,
0,
0,
0,
0,
0,
1,
0,
0,
0,
0,
0,
0,
0,
0,
0,
0,
0,
0,
0,
0,
0,
0,
0,
0,
0,
0,
0,
0,
0,
0,
0,
0,
0,
0,
0,
0,
0,
0,
0,
0,
0,
0,
0,
0,
0,
0,
0,
0,
0,
0,
0,
0,
0,
0,
0,
0,
0,
#ENDOFDATA   :

File: NaCl std.msa
#FORMAT      : EMSA/MAS Spectral Data File
#VERSION     : 1.0
#TITLE       : NaCl std
#DATE        : 17-MAR-2025
#TIME        : 10:02
#OWNER       : Unknown
#NPOINTS     : 4096
#NCOLUMNS    : 1
#XUNITS      : eV
#YUNITS      : counts
#DATATYPE    : Y
#XPERCHAN    : 10
#OFFSET      : 0
#BEAMKV      : 20
#SIGNALTYPE  : EDS
#ELEVANGLE   : 35
#AZIMANGLE   : 0
#LIVETIME    : 1195.35
#REALTIME    : 1307.22
#PROBECUR    : 1.02451
#TAUWIND     : 0
#TDEADLYR    : 0
#TACTLYR     : 0.045
#TALWIND     : 0.025
#CHOFFSET    : 0.0
#XLABEL      : Energy (eV)
#YLABEL      : Counts
#EDSDET      : SD
##SPECIMEN   : NaCl std
##D2STDCMP   : NaCl,(Na:39.3372),(Cl:60.6628),5.0
##DET_HASH   : 74d34f93-f0f0-54c9-686d-5ecd3225a094
##CALIB_HASH : 89d4943c-4976-8a46-a4c8-892a1ccde960
##WORKING    : 15.0 mm
##SAMPLE     : <BulkSample id="1">\n<mOrientation id="2">\n<double>0.0</double>\n<double>0.0</double>\n<double>-1.0</double>\n</mOrientation>\n</BulkSample>
##MULTISPEC  : 25.0044
##DET_NAME   : EDAX Det 2
##DET_MODE   : MediumLE
#SPECTRUM    :
118,
4215,
17285,
11398,
32264,
20198,
47366,
360613,
90691,
17607,
19686,
21703,
30278,
25888,
20185,
23695,
23106,
22775,
149817,
1277245,
167312,
13162,
9904,
10814,
14694,
10555,
17151,
10247,
9791,
9313,
9031,
8970,
8460,
8375,
8303,
8061,
7902,
9250,
9045,
7972,
7025,
6700,
6592,
6257,
6067,
6029,
6108,
5467,
5526,
5253,
5190,
4991,
4819,
4993,
4674,
4440,
4337,
4084,
3868,
3852,
3829,
3670,
3378,
3362,
3316,
3107,
2992,
2987,
2987,
2812,
2800,
2551,
2465,
2395,
2317,
2195,
2132,
2093,
2022,
1854,
1868,
1805,
1740,
1707,
1634,
1526,
1407,
1371,
1384,
1264,
1210,
1197,
1097,
1035,
1018,
1000,
891,
856,
789,
774,
823,
760,
658,
633,
614,
610,
558,
531,
486,
468,
422,
435,
431,
381,
316,
316,
305,
276,
255,
255,
221,
196,
221,
197,
171,
162,
150,
118,
96,
118,
92,
62,
69,
74,
58,
59,
53,
33,
36,
30,
16,
13,
3,
1,
5,
1,
2,
1,
1,
3,
1,
1,
1,
0,
0,
0,
0,
1,
1,
0,
0,
0,
0,
1,
0,
0,
0,
0,
0,
0,
0,
0,
2,
0,
0,
0,
0,
1,
0,
0,
0,
0,
0,
0,
0,
0,
0,
0,
0,
0,
1,
0,
0,
0,
0,
1,
0,
0,
0,
0,
0,
0,
0,
0,
0,
0,
0,
0,
0,
0,
0,
0,
0,
0,
0,
0,
0,
0,
0,
0,
0,
0,
0,
0,
0,
0,
0,
0,
0,
0,
0,
0,
0,
0,
0,
0,
0,
0,
0,
0,
0,
0,
0,
0,
0,
0,
0,
0,
0,
0,
0,
0,
0,
0,
0,
0,
0,
0,
0,
0,
0,
0,
0,
0,
0,
0,
0,
0,
0,
0,
0,
0,
0,
0,
0,
0,
0,
0,
0,
0,
0,
0,
0,
0,
0,
0,
0,
0,
0,
0,
0,
0,
0,
0,
#ENDOFDATA   :

File: NaF std.msa
#FORMAT      : EMSA/MAS Spectral Data File
#VERSION     : 1.0
#TITLE       : NaF std
#DATE        : 21-MAR-2025
#TIME        : 14:48
#OWNER       : Unknown
#NPOINTS     : 4096
#NCOLUMNS    : 1
#XUNITS      : eV
#YUNITS      : counts
#DATATYPE    : Y
#XPERCHAN    : 9.99778
#OFFSET      : 1.69135
#BEAMKV      : 20
#SIGNALTYPE  : EDS
#ELEVANGLE   : 35
#AZIMANGLE   : 0
#LIVETIME    : 958.592
#REALTIME    : 1036.2
#PROBECUR    : 1.02926
#TAUWIND     : 0
#TDEADLYR    : 0
#TACTLYR     : 0.045
#TALWIND     : 0.025
#CHOFFSET    : 0.0
#XLABEL      : Energy (eV)
#YLABEL      : Counts
#EDSDET      : SD
##SPECIMEN   : NaF std
##D2STDCMP   : NaF,(F:45.2465),(Na:54.7535),5.0
##DET_HASH   : 12273538-fd48-a23f-0a19-f1e6fa85caef
##CALIB_HASH : 6abaa72c-aa41-8738-0be9-f592914732f3
##WORKING    : 15.0 mm
##SAMPLE     : <BulkSample id="1">\n<mOrientation id="2">\n<double>0.0</double>\n<double>0.0</double>\n<double>-1.0</double>\n</mOrientation>\n</BulkSample>
##MULTISPEC  : 2.24216
##DET_NAME   : EDAX All
##DET_MODE   : MediumLE
#SPECTRUM    :
113,
1416,
23519,
18924,
52025,
1291839,
12634,
281624,
65203,
7171,
9444,
8480,
15567,
9592,
8840,
11501,
8944,
9078,
8969,
8577,
8521,
8293,
8062,
7760,
7456,
7278,
7086,
6684,
6566,
6336,
5934,
5750,
5636,
5252,
5203,
5007,
4742,
4588,
4442,
4259,
4155,
4035,
3822,
3706,
3573,
3630,
3406,
3187,
3050,
2989,
2867,
2856,
2593,
2608,
2539,
2318,
2498,
2358,
2165,
2095,
1951,
2048,
2035,
1849,
1873,
1700,
1624,
1501,
1511,
1476,
1453,
1321,
1315,
1295,
1210,
1141,
1097,
1163,
1039,
1020,
990,
938,
872,
864,
848,
721,
716,
701,
660,
605,
606,
608,
576,
517,
530,
494,
514,
460,
391,
425,
381,
338,
349,
317,
297,
274,
275,
239,
251,
212,
203,
205,
181,
165,
147,
157,
143,
128,
122,
105,
103,
104,
72,
92,
81,
54,
57,
77,
56,
44,
50,
35,
36,
28,
33,
28,
11,
26,
9,
8,
9,
3,
3,
1,
0,
0,
0,
0,
0,
0,
0,
1,
0,
0,
0,
0,
1,
0,
0,
0,
0,
0,
0,
0,
0,
0,
0,
0,
0,
0,
0,
0,
0,
0,
0,
0,
0,
0,
0,
0,
0,
0,
0,
0,
0,
0,
0,
0,
0,
0,
0,
0,
0,
0,
0,
0,
1,
0,
0,
0,
0,
0,
0,
0,
0,
0,
0,
0,
0,
0,
0,
0,
0,
0,
0,
0,
0,
0,
0,
0,
0,
0,
0,
0,
0,
0,
0,
0,
0,
0,
0,
0,
0,
0,
0,
0,
0,
0,
0,
0,
0,
0,
0,
0,
0,
0,
0,
0,
0,
0,
0,
0,
0,
0,
0,
0,
0,
0,
0,
0,
0,
0,
0,
0,
0,
0,
0,
0,
0,
0,
0,
0,
0,
0,
0,
0,
0,
0,
0,
0,
0,
0,
0,
0,
0,
0,
0,
0,
0,
0,
0,
0,
0,
0,
#ENDOFDATA   :

File: Nb std.msa
#FORMAT      : EMSA/MAS Spectral Data File
#VERSION     : 1.0
#TITLE       : G588 Nb[0][all]+G588 Nb[1][all]+G588 Nb[2][all]+G588 Nb[3][all]+G588 Nb[4][all]
#NPOINTS     : 4096
#NCOLUMNS    : 1
#XUNITS      : eV
#YUNITS      : counts
#DATATYPE    : Y
#SIGNALTYPE  : EDS
#XLABEL      : Energy (eV)
#YLABEL      : Counts
#XPERCHAN -eV: 9.99778
#OFFSET   -eV: 1.69135
#CHOFFSET    : 0
#OWNER       : Unknown
#ELEVANGLE   : 35
#BEAMKV   -kV: 20
#LIVETIME  -s: 1199.712
#REALTIME  -s: 1335.74
#PROBECUR -nA: 0.83562
##WORKING -mm: 15
##D2STDCMP   : Nb,(Nb:100.0000),5.000
#SPECTRUM    :
141,
50904,
34502,
58382,
37415,
28449,
33779,
38183,
43542,
47798,
51668,
55012,
57282,
69778,
95220,
582391,
1074038,
139172,
25414,
30244,
19902,
20313,
20806,
21587,
21829,
22253,
22311,
22114,
22295,
22288,
22632,
26625,
24592,
21423,
20566,
20243,
20190,
19857,
19720,
19815,
18733,
18492,
17916,
17720,
17107,
17460,
18943,
15972,
15432,
15235,
15189,
14451,
13964,
14541,
13894,
12997,
12933,
12491,
12163,
12175,
11507,
11032,
10786,
10660,
10238,
9965,
9988,
9439,
9248,
9064,
8718,
8440,
8174,
8009,
7720,
7636,
7271,
7130,
6911,
6570,
6381,
6182,
5918,
5766,
5662,
5247,
5180,
4925,
4872,
4789,
4413,
4295,
4183,
3956,
3728,
3680,
3491,
3274,
3068,
2970,
2929,
2847,
2614,
2536,
2379,
2231,
2189,
2055,
2005,
1884,
1790,
1639,
1569,
1532,
1434,
1319,
1279,
1494,
2284,
1906,
1072,
955,
833,
806,
775,
726,
668,
604,
578,
520,
481,
438,
446,
486,
325,
278,
245,
173,
149,
154,
96,
69,
35,
21,
22,
14,
15,
7,
14,
12,
6,
9,
9,
7,
7,
2,
9,
6,
6,
5,
1,
1,
7,
3,
3,
1,
2,
2,
4,
3,
2,
3,
2,
3,
5,
1,
3,
1,
0,
3,
2,
1,
4,
2,
0,
1,
3,
5,
1,
0,
4,
3,
3,
0,
1,
1,
0,
1,
0,
0,
0,
0,
1,
0,
0,
0,
1,
0,
1,
0,
0,
2,
0,
0,
0,
0,
0,
0,
0,
0,
0,
0,
0,
0,
0,
1,
0,
0,
0,
0,
1,
0,
0,
0,
0,
0,
1,
0,
0,
0,
0,
0,
0,
0,
0,
0,
0,
0,
0,
0,
0,
0,
0,
0,
0,
1,
0,
0,
0,
0,
0,
0,
0,
0,
0,
0,
0,
0,
0,
0,
0,
0,
0,
0,
0,
0,
0,
0,
0,
0,
0,
0,
0,
0,
0,
0,
0,
0,
0,
0,
0,
0,
0,
0,
#ENDOFDATA   :

File: Ni std.msa
#FORMAT      : EMSA/MAS Spectral Data File
#VERSION     : 1.0
#TITLE       : Ni std
#DATE        : 21-FEB-2025
#TIME        : 09:39
#OWNER       : Unknown
#NPOINTS     : 4096
#NCOLUMNS    : 1
#XUNITS      : eV
#YUNITS      : counts
#DATATYPE    : Y
#XPERCHAN    : 9.99778
#OFFSET      : 1.69135
#BEAMKV      : 20
#SIGNALTYPE  : EDS
#ELEVANGLE   : 35
#AZIMANGLE   : 0
#LIVETIME    : 1199.68
#REALTIME    : 1310.03
#PROBECUR    : 1.05789
#TAUWIND     : 0
#TDEADLYR    : 0
#TACTLYR     : 0.045
#TALWIND     : 0.025
#CHOFFSET    : 0.0
#XLABEL      : Energy (eV)
#YLABEL      : Counts
#EDSDET      : SD
##SPECIMEN   : Ni std
##D2STDCMP   : Ni,(Ni:100.0)
##DET_HASH   : 12273538-fd48-a23f-0a19-f1e6fa85caef
##CALIB_HASH : 6abaa72c-aa41-8738-0be9-f592914732f3
##WORKING    : 15.0 mm
##SAMPLE     : <BulkSample id="1">\n<mOrientation id="2">\n<double>0.0</double>\n<double>0.0</double>\n<double>-1.0</double>\n</mOrientation>\n</BulkSample>
##MULTISPEC  : 1.58398
##DET_NAME   : EDAX All
##DET_MODE   : MediumLE
#SPECTRUM    :
132,
1528,
33930,
29515,
48895,
203017,
1276817,
16785,
14106,
17553,
20406,
23033,
26804,
26190,
24097,
25424,
26388,
26519,
26638,
26684,
26087,
25770,
25181,
24783,
24295,
23460,
23228,
22401,
22091,
21288,
20724,
20042,
19668,
19251,
18527,
17888,
17249,
16594,
16453,
16353,
15796,
16824,
17338,
14505,
13914,
14595,
16893,
12920,
12314,
12195,
12665,
12497,
21181,
547074,
266899,
11587,
10432,
10710,
21001,
105760,
18105,
6912,
6932,
6656,
6533,
6742,
6216,
6124,
5981,
5830,
5674,
5547,
5398,
5310,
5040,
5035,
4789,
4622,
4465,
4365,
4272,
4137,
3927,
3841,
3660,
3602,
3373,
3317,
3131,
3075,
2921,
2913,
2698,
2581,
2495,
2431,
2287,
2227,
2150,
2059,
1933,
1778,
1835,
1606,
1576,
1552,
1698,
1856,
1332,
1239,
1138,
1093,
1162,
1081,
918,
863,
844,
753,
723,
694,
626,
592,
594,
518,
491,
464,
375,
361,
352,
334,
328,
241,
278,
225,
202,
184,
161,
140,
86,
96,
63,
36,
25,
19,
13,
17,
13,
15,
4,
10,
4,
8,
11,
8,
6,
10,
7,
4,
5,
8,
4,
9,
6,
4,
2,
7,
3,
6,
0,
6,
8,
2,
3,
3,
6,
2,
6,
1,
2,
4,
1,
3,
2,
0,
1,
3,
1,
1,
2,
1,
0,
0,
1,
0,
4,
0,
1,
0,
1,
0,
0,
0,
1,
0,
0,
0,
2,
1,
1,
0,
0,
0,
0,
0,
0,
1,
0,
0,
1,
0,
0,
0,
1,
0,
0,
0,
0,
0,
0,
0,
0,
0,
1,
0,
0,
0,
0,
0,
0,
0,
0,
0,
0,
0,
0,
0,
0,
0,
0,
0,
0,
0,
0,
0,
0,
0,
0,
0,
0,
0,
0,
0,
0,
0,
0,
0,
0,
0,
0,
0,
0,
0,
0,
0,
0,
0,
0,
0,
0,
0,
0,
0,
0,
0,
0,
0,
0,
0,
0,
0,
0,
0,
0,
0,
#ENDOFDATA   :

File: PbGe std.msa
#FORMAT      : EMSA/MAS Spectral Data File
#VERSION     : 1.0
#TITLE       : PbGe std
#DATE        : 01-MAY-2025
#TIME        : 09:32
#OWNER       : Unknown
#NPOINTS     : 4096
#NCOLUMNS    : 1
#XUNITS      : eV
#YUNITS      : counts
#DATATYPE    : Y
#XPERCHAN    : 9.99778
#OFFSET      : 1.69135
#BEAMKV      : 20
#SIGNALTYPE  : EDS
#ELEVANGLE   : 35
#AZIMANGLE   : 0
#LIVETIME    : 1682.01
#REALTIME    : 1840.53
#PROBECUR    : 1.04225
#TAUWIND     : 0
#TDEADLYR    : 0
#TACTLYR     : 0.045
#TALWIND     : 0.025
#CHOFFSET    : 0.0
#XLABEL      : Energy (eV)
#YLABEL      : Counts
#EDSDET      : SD
##SPECIMEN   : PbGe std
##D2STDCMP   : PbGe,(Ge:25.955),(Pb:74.045)
##DET_HASH   : 12273538-fd48-a23f-0a19-f1e6fa85caef
##CALIB_HASH : 6abaa72c-aa41-8738-0be9-f592914732f3
##WORKING    : 15.0 mm
##SAMPLE     : <BulkSample id="1">\n<mOrientation id="2">\n<double>0.0</double>\n<double>0.0</double>\n<double>-1.0</double>\n</mOrientation>\n</BulkSample>
##MULTISPEC  : 1.97802
##DET_NAME   : EDAX All
##DET_MODE   : MediumLE
#SPECTRUM    :
189,
3360,
96837,
42411,
148970,
49748,
49455,
63349,
164974,
241924,
46400,
48377,
53699,
101963,
52961,
54963,
104421,
775155,
138195,
75669,
36141,
39132,
47032,
37250,
34720,
36025,
35083,
34490,
32932,
32923,
32468,
32212,
35552,
32313,
31910,
31578,
30554,
29660,
29370,
28582,
28011,
27511,
26716,
26429,
25846,
25933,
26901,
23965,
23420,
23250,
22677,
22051,
21342,
22419,
20855,
19984,
19666,
19001,
18641,
18613,
17380,
16956,
16952,
16297,
15821,
17381,
17465,
14782,
14485,
16007,
88973,
88867,
14717,
12901,
18229,
64453,
36563,
12338,
23678,
18858,
10173,
9691,
9110,
8932,
8618,
8300,
8318,
8623,
8405,
11386,
28426,
12590,
7488,
7228,
5922,
5533,
5319,
5123,
4876,
4692,
4521,
4385,
4267,
4007,
3910,
5041,
4452,
3506,
3607,
3200,
2831,
2721,
2564,
2385,
2251,
2139,
2083,
1896,
1780,
1797,
1594,
1523,
1483,
1281,
1228,
1181,
1077,
952,
930,
836,
741,
722,
661,
555,
481,
439,
422,
353,
271,
239,
210,
140,
73,
35,
33,
33,
44,
30,
16,
23,
18,
22,
27,
22,
24,
21,
13,
15,
14,
11,
14,
22,
16,
10,
10,
12,
9,
6,
13,
10,
10,
10,
4,
7,
8,
7,
5,
9,
13,
3,
5,
3,
10,
3,
9,
4,
7,
6,
4,
8,
7,
1,
3,
3,
2,
7,
3,
2,
2,
3,
2,
2,
1,
3,
3,
1,
3,
3,
2,
0,
1,
1,
0,
0,
0,
1,
1,
0,
1,
1,
0,
1,
1,
0,
0,
0,
1,
0,
1,
0,
0,
0,
0,
0,
0,
0,
0,
1,
0,
0,
1,
0,
0,
0,
0,
0,
0,
0,
0,
0,
0,
0,
1,
0,
0,
0,
0,
0,
0,
0,
0,
0,
0,
0,
0,
0,
0,
0,
0,
0,
0,
0,
0,
0,
0,
0,
0,
0,
0,
0,
0,
0,
0,
0,
0,
0,
0,
0,
0,
0,
0,
0,
0,
0,
#ENDOFDATA   :

File: PbO std.msa
#FORMAT      : EMSA/MAS Spectral Data File
#VERSION     : 1.0
#TITLE       : PbO std
#DATE        : 01-MAY-2025
#TIME        : 09:44
#OWNER       : Unknown
#NPOINTS     : 4096
#NCOLUMNS    : 1
#XUNITS      : eV
#YUNITS      : counts
#DATATYPE    : Y
#XPERCHAN    : 9.99778
#OFFSET      : 1.69135
#BEAMKV      : 20
#SIGNALTYPE  : EDS
#ELEVANGLE   : 35
#AZIMANGLE   : 0
#LIVETIME    : 1200.61
#REALTIME    : 1351.35
#PROBECUR    : 1.04225
#TAUWIND     : 0
#TDEADLYR    : 0
#TACTLYR     : 0.045
#TALWIND     : 0.025
#CHOFFSET    : 0.0
#XLABEL      : Energy (eV)
#YLABEL      : Counts
#EDSDET      : SD
##SPECIMEN   : PbO std
##D2STDCMP   : PbO,(O:7.168),(Pb:92.832)
##DET_HASH   : 12273538-fd48-a23f-0a19-f1e6fa85caef
##CALIB_HASH : 6abaa72c-aa41-8738-0be9-f592914732f3
##WORKING    : 15.0 mm
##SAMPLE     : <BulkSample id="1">\n<mOrientation id="2">\n<double>0.0</double>\n<double>0.0</double>\n<double>-1.0</double>\n</mOrientation>\n</BulkSample>
##MULTISPEC  : 36.6482
##DET_NAME   : EDAX All
##DET_MODE   : MediumLE
#SPECTRUM    :
131,
7534,
222168,
28172,
69078,
64401,
37633,
41413,
44497,
49798,
53343,
56807,
61252,
133324,
59256,
62639,
136512,
1133537,
181562,
79128,
30226,
34529,
43289,
31625,
29073,
29683,
29272,
30063,
28398,
29007,
29257,
29285,
32955,
29891,
31410,
29858,
28383,
27963,
27774,
27324,
26849,
26657,
26106,
25843,
25189,
25567,
26600,
24063,
23803,
22983,
22866,
22201,
21659,
22398,
21132,
20345,
20086,
19413,
19168,
18604,
18592,
17983,
17681,
17308,
16684,
18655,
19228,
15800,
15263,
14850,
14303,
14190,
13909,
13765,
21180,
84795,
46620,
12771,
11586,
11184,
11064,
11150,
10188,
9788,
9436,
9159,
9494,
9966,
9654,
13934,
38342,
16183,
8661,
8505,
6468,
6149,
5806,
5410,
5326,
5224,
4941,
4735,
4860,
4395,
4546,
6167,
5304,
3980,
4208,
3613,
3141,
2880,
2788,
2664,
2462,
2381,
2280,
2155,
2022,
1954,
1822,
1754,
1527,
1480,
1422,
1281,
1229,
1096,
1030,
960,
896,
762,
727,
626,
572,
475,
455,
358,
280,
215,
163,
117,
82,
63,
38,
30,
29,
20,
35,
32,
39,
45,
21,
18,
16,
26,
25,
27,
17,
7,
18,
18,
15,
15,
13,
12,
20,
12,
14,
6,
5,
10,
5,
11,
7,
7,
10,
11,
8,
10,
14,
12,
15,
7,
7,
11,
5,
6,
10,
4,
7,
6,
5,
3,
4,
2,
5,
9,
2,
3,
5,
3,
2,
2,
1,
5,
2,
3,
1,
2,
2,
1,
2,
1,
2,
2,
2,
4,
0,
2,
1,
2,
1,
0,
2,
0,
0,
0,
0,
1,
0,
3,
2,
0,
1,
0,
0,
0,
1,
0,
0,
1,
0,
0,
0,
0,
0,
0,
0,
0,
0,
0,
0,
0,
0,
0,
0,
0,
0,
0,
0,
0,
0,
0,
0,
0,
0,
0,
0,
0,
0,
0,
0,
0,
0,
0,
0,
0,
0,
0,
0,
0,
0,
0,
0,
0,
0,
0,
0,
0,
0,
0,
0,
0,
#ENDOFDATA   :

File: PbTe std.msa
#FORMAT      : EMSA/MAS Spectral Data File
#VERSION     : 1.0
#TITLE       : PbTe std
#DATE        : 01-MAY-2025
#TIME        : 09:38
#OWNER       : Unknown
#NPOINTS     : 4096
#NCOLUMNS    : 1
#XUNITS      : eV
#YUNITS      : counts
#DATATYPE    : Y
#XPERCHAN    : 9.99778
#OFFSET      : 1.69135
#BEAMKV      : 20
#SIGNALTYPE  : EDS
#ELEVANGLE   : 35
#AZIMANGLE   : 0
#LIVETIME    : 961.017
#REALTIME    : 1068.99
#PROBECUR    : 1.04225
#TAUWIND     : 0
#TDEADLYR    : 0
#TACTLYR     : 0.045
#TALWIND     : 0.025
#CHOFFSET    : 0.0
#XLABEL      : Energy (eV)
#YLABEL      : Counts
#EDSDET      : SD
##SPECIMEN   : PbTe std
##D2STDCMP   : PbTe,(Te:38.1123),(Pb:61.8877)
##DET_HASH   : 12273538-fd48-a23f-0a19-f1e6fa85caef
##CALIB_HASH : 6abaa72c-aa41-8738-0be9-f592914732f3
##WORKING    : 15.0 mm
##SAMPLE     : <BulkSample id="1">\n<mOrientation id="2">\n<double>0.0</double>\n<double>0.0</double>\n<double>-1.0</double>\n</mOrientation>\n</BulkSample>
##MULTISPEC  : 1.23995
##DET_NAME   : EDAX All
##DET_MODE   : MediumLE
#SPECTRUM    :
89,
7592,
76048,
45291,
37622,
31477,
29760,
26853,
29133,
32602,
35993,
39166,
41352,
77318,
41872,
42928,
79049,
560914,
101870,
53008,
26579,
29120,
34239,
27461,
33037,
26353,
36093,
261537,
35870,
137234,
38359,
51806,
28210,
31311,
25332,
23758,
20160,
19993,
19680,
19522,
19369,
19136,
19071,
18720,
18627,
18548,
19366,
17413,
17180,
16810,
16676,
16199,
15901,
16423,
15703,
14806,
14544,
14249,
13985,
14000,
13191,
13099,
12803,
12616,
12180,
13169,
13394,
11445,
11056,
10782,
10682,
10405,
10023,
9964,
14158,
48283,
27011,
9198,
8501,
8250,
7936,
8059,
7540,
7282,
6997,
6890,
6766,
7032,
6732,
9116,
22177,
10173,
6087,
6039,
4954,
4595,
4317,
4220,
4021,
3748,
3694,
3625,
3683,
3368,
3381,
4274,
3661,
2926,
3119,
2770,
2398,
2266,
2210,
2176,
1923,
1800,
1777,
1687,
1560,
1509,
1410,
1321,
1220,
1199,
1072,
1035,
970,
862,
854,
809,
722,
681,
595,
546,
503,
416,
414,
324,
269,
223,
172,
116,
76,
38,
32,
30,
17,
29,
17,
15,
22,
30,
18,
18,
17,
17,
16,
13,
12,
14,
13,
14,
12,
6,
12,
10,
8,
7,
12,
12,
7,
11,
4,
6,
4,
3,
7,
0,
8,
2,
5,
9,
8,
9,
4,
7,
8,
5,
2,
3,
3,
4,
4,
2,
2,
4,
7,
3,
5,
5,
1,
6,
5,
2,
4,
0,
0,
1,
1,
1,
2,
1,
3,
1,
1,
1,
2,
1,
1,
0,
1,
0,
0,
2,
0,
1,
0,
2,
0,
0,
0,
0,
0,
1,
0,
0,
1,
0,
0,
0,
0,
1,
0,
0,
1,
0,
0,
0,
0,
0,
1,
0,
0,
0,
0,
0,
1,
0,
0,
0,
0,
0,
0,
0,
0,
0,
0,
0,
0,
0,
0,
0,
0,
0,
0,
0,
0,
0,
0,
0,
0,
0,
0,
0,
0,
0,
0,
0,
0,
0,
0,
0,
0,
0,
#ENDOFDATA   :