Folder: spex_quant/N132962/Standards/20 keV (part 6)

File: Pd std.msa
#FORMAT      : EMSA/MAS Spectral Data File
#VERSION     : 1.0
#TITLE       : G588 Pd[1][all]+G588 Pd[2][all]+G588 Pd[3][all]+G588 Pd[4][all]
#NPOINTS     : 4096
#NCOLUMNS    : 1
#XUNITS      : eV
#YUNITS      : counts
#DATATYPE    : Y
#SIGNALTYPE  : EDS
#XLABEL      : Energy (eV)
#YLABEL      : Counts
#XPERCHAN -eV: 9.99778
#OFFSET   -eV: 1.69135
#CHOFFSET    : 0
#OWNER       : Unknown
#ELEVANGLE   : 35
#BEAMKV   -kV: 20
#LIVETIME  -s: 960.072
#REALTIME  -s: 1068.83
#PROBECUR -nA: 1.04548
##WORKING -mm: 15
##D2STDCMP   : Pd,(Pd:100.0000)
#SPECTRUM    :
113,
6829,
238037,
15068,
17178,
17850,
20773,
23660,
42248,
37900,
34945,
36532,
39060,
39820,
35657,
37374,
40480,
37883,
78423,
56071,
798642,
355110,
200349,
79369,
40451,
22432,
18331,
16233,
16439,
16554,
16594,
16758,
16756,
16623,
16632,
16499,
16535,
16352,
16106,
16280,
16277,
16814,
16520,
15339,
14595,
14771,
16041,
13625,
13228,
12998,
13023,
12607,
12254,
12583,
11792,
11381,
11119,
11075,
10577,
10455,
9940,
9885,
9615,
9306,
9256,
8759,
8535,
8306,
8318,
8043,
7716,
8101,
7426,
7217,
6977,
6815,
6501,
6231,
6269,
5820,
5712,
5580,
5537,
5265,
5171,
5048,
4755,
4468,
4462,
4160,
4012,
3907,
3712,
3535,
3409,
3336,
3177,
3011,
2890,
2873,
2636,
2541,
2345,
2311,
2269,
2132,
2017,
1889,
1809,
1717,
1645,
1549,
1452,
1469,
1393,
1284,
1123,
1134,
1038,
984,
953,
929,
778,
768,
716,
666,
633,
561,
537,
514,
415,
404,
336,
320,
281,
261,
235,
205,
163,
124,
112,
64,
44,
17,
13,
11,
8,
14,
7,
5,
8,
9,
6,
6,
10,
6,
9,
4,
7,
4,
4,
7,
3,
4,
2,
4,
3,
3,
5,
2,
3,
4,
1,
5,
4,
2,
3,
6,
5,
2,
4,
1,
1,
2,
2,
1,
0,
4,
1,
2,
2,
1,
1,
0,
2,
0,
0,
1,
1,
0,
4,
1,
0,
1,
1,
0,
0,
0,
1,
0,
0,
2,
2,
0,
1,
1,
0,
0,
0,
0,
0,
0,
0,
0,
0,
0,
1,
0,
1,
0,
1,
0,
0,
0,
0,
0,
0,
0,
0,
0,
0,
0,
0,
0,
0,
0,
0,
0,
0,
0,
0,
0,
0,
0,
0,
0,
0,
1,
0,
0,
0,
0,
0,
0,
0,
0,
1,
0,
0,
0,
0,
0,
0,
0,
0,
0,
0,
0,
0,
0,
0,
0,
0,
0,
0,
0,
0,
0,
0,
0,
0,
0,
0,
0,
#ENDOFDATA   :

File: Pt std.msa
#FORMAT      : EMSA/MAS Spectral Data File
#VERSION     : 1.0
#TITLE       : G588 Pt[0][all]+G588 Pt[1][all]+G588 Pt[2][all]+G588 Pt[3][all]+G588 Pt[4][all]
#NPOINTS     : 4096
#NCOLUMNS    : 1
#XUNITS      : eV
#YUNITS      : counts
#DATATYPE    : Y
#SIGNALTYPE  : EDS
#XLABEL      : Energy (eV)
#YLABEL      : Counts
#XPERCHAN -eV: 9.99778
#OFFSET   -eV: 1.69135
#CHOFFSET    : 0
#OWNER       : Unknown
#ELEVANGLE   : 35
#BEAMKV   -kV: 20
#LIVETIME  -s: 1199.74
#REALTIME  -s: 1362.84
#PROBECUR -nA: 1.04502
##WORKING -mm: 15
##D2STDCMP   : Pt,(Pt:100.0000)
#SPECTRUM    :
128,
5521,
76870,
36502,
34427,
41777,
46717,
49322,
56245,
61327,
64743,
100178,
86070,
75780,
237230,
1332228,
55415,
51256,
31692,
40448,
31832,
30219,
29981,
30953,
29899,
30287,
30906,
31396,
31588,
33364,
34733,
31372,
31218,
30858,
30870,
30624,
30266,
29965,
30019,
30016,
28979,
28603,
28165,
27092,
26945,
27881,
30073,
25715,
25312,
24473,
24632,
23741,
23157,
24364,
22913,
21860,
21099,
20994,
21374,
29016,
20685,
19039,
18678,
18462,
17922,
17431,
24737,
143700,
93375,
17270,
15904,
16390,
15017,
14224,
13938,
13573,
13439,
16938,
22999,
59509,
49083,
25548,
13529,
11867,
9735,
9054,
9037,
8584,
8419,
8326,
8191,
8215,
13393,
11054,
7969,
8712,
6710,
6031,
5806,
5628,
5290,
5050,
4940,
4746,
4512,
4288,
4156,
4027,
3860,
3574,
3550,
3347,
3067,
2976,
2854,
2734,
2503,
2443,
2347,
2199,
2100,
1931,
1787,
1796,
1693,
1596,
1460,
1344,
1274,
1233,
1069,
1004,
873,
864,
745,
722,
577,
522,
439,
380,
278,
213,
145,
71,
53,
41,
63,
66,
49,
41,
26,
38,
24,
36,
36,
39,
35,
27,
28,
38,
29,
21,
24,
13,
22,
18,
13,
13,
11,
15,
15,
16,
11,
10,
10,
10,
15,
15,
18,
14,
8,
16,
14,
16,
15,
11,
12,
7,
10,
6,
10,
7,
7,
11,
6,
5,
7,
6,
7,
5,
4,
3,
2,
3,
3,
2,
2,
3,
1,
4,
0,
2,
5,
3,
2,
0,
2,
0,
1,
1,
1,
0,
0,
1,
0,
0,
0,
0,
1,
1,
1,
0,
1,
1,
2,
0,
0,
0,
0,
0,
0,
0,
0,
1,
1,
0,
0,
0,
0,
0,
0,
0,
0,
0,
0,
0,
0,
0,
0,
0,
0,
0,
0,
0,
0,
0,
0,
0,
0,
0,
0,
0,
0,
0,
0,
0,
0,
0,
0,
0,
0,
0,
0,
0,
0,
0,
0,
0,
0,
0,
0,
0,
0,
0,
#ENDOFDATA   :

File: RbI std.msa
#FORMAT      : EMSA/MAS Spectral Data File
#VERSION     : 1.0
#TITLE       : RbI std
#DATE        : 21-MAR-2025
#TIME        : 14:36
#OWNER       : Unknown
#NPOINTS     : 4096
#NCOLUMNS    : 1
#XUNITS      : eV
#YUNITS      : counts
#DATATYPE    : Y
#XPERCHAN    : 9.99778
#OFFSET      : 1.69135
#BEAMKV      : 20
#SIGNALTYPE  : EDS
#ELEVANGLE   : 35
#AZIMANGLE   : 0
#LIVETIME    : 1198.57
#REALTIME    : 1310.76
#PROBECUR    : 1.02926
#TAUWIND     : 0
#TDEADLYR    : 0
#TACTLYR     : 0.045
#TALWIND     : 0.025
#CHOFFSET    : 0.0
#XLABEL      : Energy (eV)
#YLABEL      : Counts
#EDSDET      : SD
##SPECIMEN   : RbI std
##D2STDCMP   : RbI,(Rb:40.2444),(I:59.7556),5.0
##DET_HASH   : 12273538-fd48-a23f-0a19-f1e6fa85caef
##CALIB_HASH : 6abaa72c-aa41-8738-0be9-f592914732f3
##WORKING    : 15.0 mm
##SAMPLE     : <BulkSample id="1">\n<mOrientation id="2">\n<double>0.0</double>\n<double>0.0</double>\n<double>-1.0</double>\n</mOrientation>\n</BulkSample>
##MULTISPEC  : 1.11852
##DET_NAME   : EDAX All
##DET_MODE   : MediumLE
#SPECTRUM    :
131,
2977,
52733,
34309,
40297,
25954,
38100,
31570,
28645,
32613,
39080,
58646,
652049,
118835,
27607,
28677,
30891,
29385,
31305,
30338,
30590,
30468,
30133,
29933,
31553,
47623,
30210,
41770,
502817,
53414,
242406,
93403,
90813,
31711,
42298,
25185,
32628,
21317,
18096,
18012,
18284,
17598,
17417,
17369,
16647,
16910,
17407,
16094,
15318,
15195,
14986,
14673,
14116,
14799,
13874,
13254,
13146,
13439,
12958,
12448,
11912,
11892,
11514,
11013,
10758,
10518,
10215,
9927,
9793,
9614,
9066,
8895,
8711,
8304,
8048,
8001,
7746,
7442,
7202,
6897,
6689,
6571,
6448,
6196,
5843,
5687,
5383,
5382,
5148,
4966,
4745,
4482,
4408,
4230,
5162,
18172,
16030,
4285,
3458,
3338,
3188,
2963,
2797,
2639,
2602,
2623,
3626,
4642,
2624,
2178,
1896,
1745,
1685,
1662,
1532,
1463,
1353,
1297,
1251,
1148,
1051,
994,
946,
938,
900,
803,
716,
687,
577,
629,
497,
480,
435,
406,
351,
333,
236,
213,
190,
160,
99,
72,
58,
26,
19,
14,
14,
15,
17,
11,
14,
12,
10,
14,
11,
8,
10,
9,
10,
9,
8,
4,
7,
5,
7,
6,
3,
8,
5,
3,
3,
4,
8,
4,
3,
3,
5,
6,
7,
5,
3,
5,
4,
2,
6,
1,
3,
1,
1,
2,
2,
2,
2,
0,
0,
1,
1,
1,
2,
1,
1,
0,
0,
0,
1,
1,
1,
1,
0,
1,
2,
0,
0,
0,
1,
1,
0,
0,
0,
0,
1,
1,
1,
0,
0,
0,
0,
0,
1,
0,
0,
0,
1,
0,
0,
0,
1,
0,
0,
0,
0,
0,
0,
0,
0,
0,
0,
0,
0,
0,
0,
0,
0,
0,
0,
0,
0,
0,
0,
0,
0,
0,
0,
0,
0,
0,
0,
0,
0,
0,
0,
0,
0,
0,
0,
0,
0,
0,
0,
0,
0,
0,
0,
0,
0,
0,
0,
0,
0,
0,
0,
0,
0,
0,
#ENDOFDATA   :

File: Re std.msa
#FORMAT      : EMSA/MAS Spectral Data File
#VERSION     : 1.0
#TITLE       : Re std
#DATE        : 20-FEB-2025
#TIME        : 17:14
#OWNER       : Unknown
#NPOINTS     : 4096
#NCOLUMNS    : 1
#XUNITS      : eV
#YUNITS      : counts
#DATATYPE    : Y
#XPERCHAN    : 9.99778
#OFFSET      : 1.69135
#BEAMKV      : 20
#SIGNALTYPE  : EDS
#ELEVANGLE   : 35
#AZIMANGLE   : 0
#LIVETIME    : 951.7897
#REALTIME    : 1069.19
#PROBECUR    : 1.04992
#TAUWIND     : 0
#TDEADLYR    : 0
#TACTLYR     : 0.045
#TALWIND     : 0.025
#CHOFFSET    : 0.0
#XLABEL      : Energy (eV)
#YLABEL      : Counts
#EDSDET      : SD
##SPECIMEN   : Re std
##D2STDCMP   : Re,(Re:100.0),5.0
##DET_HASH   : 12273538-fd48-a23f-0a19-f1e6fa85caef
##CALIB_HASH : 6abaa72c-aa41-8738-0be9-f592914732f3
##WORKING    : 15.0 mm
##SAMPLE     : <BulkSample id="1">\n<mOrientation id="2">\n<double>0.0</double>\n<double>0.0</double>\n<double>-1.0</double>\n</mOrientation>\n</BulkSample>
##MULTISPEC  : 1.62878
##DET_NAME   : EDAX All
##DET_MODE   : MediumLE
#SPECTRUM    :
97,
5020,
35205,
22841,
32055,
35512,
36090,
38387,
42759,
47325,
105661,
57213,
68568,
1047564,
194832,
44308,
21313,
26322,
21378,
20510,
20512,
21243,
21052,
21853,
21986,
22382,
24338,
24399,
22594,
23000,
22494,
22706,
22787,
22272,
22266,
22317,
22122,
21769,
22521,
23761,
20734,
20390,
20629,
19935,
19283,
21788,
27323,
18356,
17919,
17827,
18551,
17261,
16653,
17901,
23507,
18213,
15493,
14883,
14786,
14775,
15232,
68899,
159587,
19675,
14056,
13112,
12059,
11697,
11657,
11831,
17310,
51334,
45475,
38673,
24118,
11491,
9232,
8346,
7981,
7744,
7799,
7732,
7713,
14105,
11887,
8037,
8685,
6921,
5843,
6082,
5486,
5279,
5037,
4963,
4714,
4551,
4480,
4345,
4031,
3881,
3672,
3712,
3543,
3377,
3237,
3167,
2913,
2872,
2631,
2508,
2453,
2337,
2279,
2126,
2051,
1974,
1866,
1741,
1762,
1540,
1436,
1399,
1362,
1303,
1280,
1147,
1047,
949,
924,
835,
698,
715,
620,
639,
515,
478,
388,
370,
297,
229,
210,
163,
91,
52,
43,
36,
24,
27,
20,
27,
27,
18,
17,
18,
14,
16,
16,
15,
15,
10,
9,
13,
11,
10,
13,
13,
10,
17,
10,
8,
9,
11,
13,
9,
9,
5,
14,
4,
9,
7,
7,
5,
8,
3,
6,
9,
2,
7,
9,
5,
5,
6,
2,
5,
2,
3,
4,
4,
3,
2,
2,
6,
1,
1,
1,
3,
3,
0,
2,
0,
0,
2,
3,
0,
1,
1,
0,
0,
2,
1,
2,
1,
0,
0,
0,
1,
0,
0,
1,
1,
2,
0,
0,
0,
0,
1,
0,
0,
0,
0,
0,
0,
1,
0,
0,
0,
0,
0,
0,
0,
0,
0,
0,
0,
0,
0,
0,
0,
0,
0,
0,
0,
0,
0,
0,
0,
0,
0,
0,
0,
0,
0,
0,
0,
0,
0,
0,
0,
0,
0,
0,
0,
0,
0,
0,
0,
0,
0,
0,
0,
0,
0,
0,
0,
#ENDOFDATA   :

File: Rh std.msa
#FORMAT      : EMSA/MAS Spectral Data File
#VERSION     : 1.0
#TITLE       : G588 Rh[0][all]+G588 Rh[1][all]+G588 Rh[2][all]+G588 Rh[3][all]+G588 Rh[4][all]
#NPOINTS     : 4096
#NCOLUMNS    : 1
#XUNITS      : eV
#YUNITS      : counts
#DATATYPE    : Y
#SIGNALTYPE  : EDS
#XLABEL      : Energy (eV)
#YLABEL      : Counts
#XPERCHAN -eV: 9.99778
#OFFSET   -eV: 1.69135
#CHOFFSET    : 0
#OWNER       : Unknown
#ELEVANGLE   : 35
#BEAMKV   -kV: 20
#LIVETIME  -s: 1200.9
#REALTIME  -s: 1339.39
#PROBECUR -nA: 1.04548
##WORKING -mm: 15
##D2STDCMP   : Rh,(Rh:100.0000),5.000
#SPECTRUM    :
148,
8983,
229400,
18046,
20306,
24660,
28603,
50554,
44143,
42470,
45064,
47218,
49874,
51499,
46264,
47579,
48309,
105941,
73455,
1095214,
580866,
209850,
63479,
29586,
33659,
20563,
20732,
21192,
21325,
21219,
21406,
21358,
21232,
21187,
21029,
20886,
20607,
20450,
21632,
23205,
21187,
19840,
19269,
18645,
18129,
18706,
21526,
16882,
16554,
15978,
16173,
15668,
15009,
15791,
14917,
14024,
13779,
13292,
13187,
13003,
12387,
12210,
12142,
11377,
11244,
11038,
10471,
10365,
10142,
9854,
9617,
9363,
8972,
8685,
8406,
8373,
8016,
7602,
7455,
7259,
7049,
6843,
6607,
6472,
6156,
5997,
5841,
5477,
5250,
5189,
4930,
4566,
4575,
4388,
4196,
4119,
3932,
3847,
3559,
3465,
3162,
3082,
2929,
2803,
2698,
2522,
2468,
2333,
2264,
2072,
2070,
1904,
1812,
1717,
1594,
1491,
1457,
1362,
1284,
1275,
1113,
1112,
1006,
963,
912,
819,
751,
747,
647,
630,
562,
481,
429,
409,
332,
305,
264,
236,
194,
163,
122,
91,
66,
23,
23,
11,
13,
10,
15,
18,
7,
9,
7,
12,
9,
9,
4,
3,
5,
8,
8,
6,
8,
1,
5,
3,
5,
3,
6,
5,
3,
3,
6,
2,
5,
1,
3,
4,
6,
2,
4,
3,
3,
0,
1,
0,
3,
3,
0,
1,
1,
1,
2,
0,
1,
2,
1,
1,
2,
1,
3,
1,
0,
0,
1,
0,
1,
1,
0,
1,
0,
1,
0,
1,
0,
0,
0,
0,
0,
0,
0,
0,
1,
3,
0,
1,
0,
0,
0,
0,
0,
0,
0,
0,
0,
0,
0,
0,
0,
0,
0,
0,
0,
0,
0,
0,
0,
0,
1,
0,
0,
0,
0,
0,
0,
0,
0,
0,
0,
0,
0,
0,
0,
0,
0,
0,
0,
0,
0,
0,
0,
0,
0,
0,
0,
0,
0,
0,
0,
0,
0,
0,
0,
0,
0,
0,
0,
0,
0,
0,
0,
0,
0,
0,
#ENDOFDATA   :

File: Ru std.msa
#FORMAT      : EMSA/MAS Spectral Data File
#VERSION     : 1.0
#TITLE       : Ru std
#DATE        : 25-SEP-2025
#TIME        : 15:15
#OWNER       : Unknown
#NPOINTS     : 4096
#NCOLUMNS    : 1
#XUNITS      : eV
#YUNITS      : counts
#DATATYPE    : Y
#XPERCHAN    : 9.99778
#OFFSET      : 1.69135
#BEAMKV      : 20
#SIGNALTYPE  : EDS
#ELEVANGLE   : 35
#AZIMANGLE   : 0
#LIVETIME    : 961.318
#REALTIME    : 1090.15
#PROBECUR    : 1.18489
#TAUWIND     : 0
#TDEADLYR    : 0
#TACTLYR     : 0.045
#TALWIND     : 0.025
#CHOFFSET    : 0.0
#XLABEL      : Energy (eV)
#YLABEL      : Counts
#EDSDET      : SD
##SPECIMEN   : Ru std
##D2STDCMP   : Ru,(Ru:100.0),5.0
##DET_HASH   : 12273538-fd48-a23f-0a19-f1e6fa85caef
##CALIB_HASH : 6abaa72c-aa41-8738-0be9-f592914732f3
##WORKING    : 15.0 mm
##SAMPLE     : <BulkSample id="1">\n<mOrientation id="2">\n<double>0.0</double>\n<double>0.0</double>\n<double>-1.0</double>\n</mOrientation>\n</BulkSample>
##MULTISPEC  : 2.13394
##DET_NAME   : EDAX All
##DET_MODE   : MediumLE
#SPECTRUM    :
106,
10656,
104953,
16112,
17741,
21140,
45890,
35961,
34989,
39351,
42014,
43881,
46849,
48027,
42569,
43967,
98337,
73206,
1018009,
652955,
172710,
48895,
21510,
26808,
18354,
19070,
19766,
19686,
19952,
20330,
20220,
19841,
22016,
19920,
19655,
19835,
20300,
21665,
20341,
18779,
17981,
17492,
17214,
16735,
16434,
16580,
17263,
15518,
14874,
14742,
14721,
14091,
13547,
14033,
13397,
12600,
12582,
12362,
12048,
11642,
11293,
10930,
10729,
10396,
10121,
9889,
9778,
9185,
8945,
8849,
8803,
8262,
8249,
8036,
7696,
7390,
7159,
7017,
6914,
6454,
6415,
6103,
5942,
5709,
5389,
5399,
5223,
4907,
4628,
4602,
4413,
4177,
3976,
3936,
3863,
3492,
3531,
3402,
3089,
2928,
3077,
2809,
2721,
2529,
2510,
2317,
2204,
2107,
1978,
1953,
1864,
1737,
1655,
1575,
1431,
1431,
1338,
1300,
1161,
1042,
1061,
982,
885,
837,
774,
731,
657,
643,
594,
498,
473,
442,
398,
344,
356,
292,
231,
208,
182,
150,
98,
70,
50,
38,
27,
12,
9,
10,
7,
11,
10,
10,
13,
9,
12,
7,
12,
12,
6,
4,
3,
3,
8,
5,
3,
3,
5,
2,
1,
4,
4,
3,
3,
2,
3,
7,
4,
4,
2,
2,
2,
2,
1,
2,
4,
5,
1,
4,
2,
1,
0,
1,
1,
1,
0,
1,
0,
0,
3,
0,
0,
1,
0,
0,
1,
2,
2,
1,
0,
2,
1,
0,
0,
0,
0,
0,
0,
0,
0,
1,
0,
0,
1,
1,
0,
1,
0,
0,
1,
0,
1,
0,
0,
0,
0,
1,
0,
0,
0,
1,
0,
0,
0,
0,
0,
0,
0,
0,
0,
0,
0,
0,
0,
1,
0,
0,
0,
0,
0,
0,
0,
0,
0,
0,
1,
0,
0,
0,
0,
0,
0,
0,
0,
0,
0,
0,
0,
0,
0,
0,
0,
0,
0,
0,
0,
0,
0,
0,
0,
0,
0,
0,
0,
0,
#ENDOFDATA   :

File: Sb std.msa
#FORMAT      : EMSA/MAS Spectral Data File
#VERSION     : 1.0
#TITLE       : Sb std
#DATE        : 20-FEB-2025
#TIME        : 13:08
#OWNER       : Unknown
#NPOINTS     : 4096
#NCOLUMNS    : 1
#XUNITS      : eV
#YUNITS      : counts
#DATATYPE    : Y
#XPERCHAN    : 9.99778
#OFFSET      : 1.69135
#BEAMKV      : 20
#SIGNALTYPE  : EDS
#ELEVANGLE   : 35
#AZIMANGLE   : 0
#LIVETIME    : 1206.72
#REALTIME    : 1338.39
#PROBECUR    : 1.04644
#TAUWIND     : 0
#TDEADLYR    : 0
#TACTLYR     : 0.045
#TALWIND     : 0.025
#CHOFFSET    : 0.0
#XLABEL      : Energy (eV)
#YLABEL      : Counts
#EDSDET      : SD
##SPECIMEN   : Sb std
##D2STDCMP   : Sb,(Sb:100.0),5.0
##DET_HASH   : 12273538-fd48-a23f-0a19-f1e6fa85caef
##CALIB_HASH : 6abaa72c-aa41-8738-0be9-f592914732f3
##WORKING    : 15.0 mm
##SAMPLE     : <BulkSample id="1">\n<mOrientation id="2">\n<double>0.0</double>\n<double>0.0</double>\n<double>-1.0</double>\n</mOrientation>\n</BulkSample>
##MULTISPEC  : 1.23171
##DET_NAME   : EDAX All
##DET_MODE   : MediumLE
#SPECTRUM    :
137,
8976,
71484,
273490,
43185,
31487,
24785,
22433,
26170,
30185,
34252,
37407,
40719,
49925,
39308,
45241,
41130,
42151,
40441,
41026,
40013,
39632,
41441,
70964,
43045,
138188,
857571,
223866,
316665,
137057,
50959,
71097,
25160,
40720,
20161,
19098,
19300,
19142,
19535,
19988,
18923,
18847,
18763,
18552,
18248,
19002,
21732,
17105,
16910,
16741,
16890,
16434,
16579,
17395,
16062,
15157,
14742,
14187,
13812,
13720,
13085,
12763,
12589,
12301,
11885,
11642,
11584,
10974,
10827,
10557,
10221,
10140,
9769,
9619,
9368,
8965,
8638,
8410,
8142,
7905,
7819,
7398,
7217,
6981,
6775,
6472,
6321,
6059,
5961,
5717,
5428,
5207,
4893,
4867,
4611,
4589,
4339,
4021,
4036,
3787,
3704,
3549,
3309,
3210,
3078,
2791,
2747,
2705,
2513,
2433,
2264,
2231,
2090,
1949,
1798,
1690,
1614,
1603,
1502,
1401,
1279,
1237,
1191,
1077,
987,
906,
857,
850,
761,
740,
643,
562,
525,
476,
427,
376,
347,
289,
226,
178,
151,
139,
75,
18,
26,
19,
12,
15,
21,
16,
16,
10,
14,
20,
7,
7,
4,
9,
6,
9,
7,
3,
7,
6,
2,
5,
3,
10,
8,
7,
5,
5,
3,
2,
5,
4,
0,
4,
4,
8,
3,
9,
1,
3,
0,
2,
2,
2,
4,
1,
0,
1,
1,
2,
0,
2,
3,
0,
0,
0,
2,
1,
0,
3,
3,
1,
1,
0,
0,
2,
0,
1,
0,
0,
1,
0,
0,
0,
0,
0,
0,
0,
1,
0,
1,
0,
0,
0,
0,
0,
0,
0,
1,
0,
0,
1,
1,
1,
0,
0,
0,
0,
1,
0,
0,
0,
0,
0,
0,
0,
0,
0,
0,
0,
0,
0,
0,
0,
0,
0,
0,
0,
0,
0,
0,
0,
0,
0,
0,
0,
0,
0,
0,
0,
0,
0,
0,
0,
0,
0,
0,
0,
0,
0,
0,
0,
0,
0,
0,
0,
0,
0,
0,
0,
#ENDOFDATA   :

File: Sc std.msa
#FORMAT      : EMSA/MAS Spectral Data File
#VERSION     : 1.0
#TITLE       : Sc std
#DATE        : 20-FEB-2025
#TIME        : 16:15
#OWNER       : Unknown
#NPOINTS     : 4096
#NCOLUMNS    : 1
#XUNITS      : eV
#YUNITS      : counts
#DATATYPE    : Y
#XPERCHAN    : 9.99778
#OFFSET      : 1.69135
#BEAMKV      : 20
#SIGNALTYPE  : EDS
#ELEVANGLE   : 35
#AZIMANGLE   : 0
#LIVETIME    : 1199.48
#REALTIME    : 1320.01
#PROBECUR    : 1.04971
#TAUWIND     : 0
#TDEADLYR    : 0
#TACTLYR     : 0.045
#TALWIND     : 0.025
#CHOFFSET    : 0.0
#XLABEL      : Energy (eV)
#YLABEL      : Counts
#EDSDET      : SD
##SPECIMEN   : Sc std
##D2STDCMP   : Sc,(Sc:100.0)
##DET_HASH   : 12273538-fd48-a23f-0a19-f1e6fa85caef
##CALIB_HASH : 6abaa72c-aa41-8738-0be9-f592914732f3
##WORKING    : 15.0 mm
##SAMPLE     : <BulkSample id="1">\n<mOrientation id="2">\n<double>0.0</double>\n<double>0.0</double>\n<double>-1.0</double>\n</mOrientation>\n</BulkSample>
##MULTISPEC  : 17.6968
##DET_NAME   : EDAX All
##DET_MODE   : MediumLE
#SPECTRUM    :
146,
1808,
103775,
65552,
16573,
18745,
16568,
19550,
22455,
26208,
28810,
32237,
33593,
33504,
29011,
28827,
30039,
42244,
27035,
26983,
25261,
23909,
23280,
22746,
22458,
22076,
21296,
20373,
39435,
1824129,
196300,
42124,
265275,
12423,
10007,
9949,
9906,
9694,
9648,
9617,
9403,
9186,
9329,
8931,
8507,
8905,
9576,
7974,
7877,
7682,
7769,
7421,
7077,
7269,
6858,
6633,
6319,
6281,
8639,
8092,
5777,
6683,
5540,
5307,
5289,
4960,
4837,
4718,
4566,
4511,
4310,
4197,
3943,
4074,
3767,
3648,
3455,
3386,
3264,
3208,
3042,
2839,
2804,
2701,
2654,
2566,
2375,
2234,
2186,
2102,
2078,
2011,
1869,
1884,
1742,
1597,
1616,
1509,
1421,
1280,
1356,
1215,
1245,
1146,
1059,
988,
954,
902,
854,
801,
796,
718,
679,
684,
648,
549,
577,
512,
465,
423,
435,
386,
385,
304,
345,
267,
229,
252,
226,
216,
155,
160,
144,
121,
113,
99,
81,
71,
55,
52,
33,
14,
15,
9,
7,
6,
4,
4,
8,
5,
5,
3,
0,
2,
3,
3,
3,
4,
3,
2,
5,
3,
2,
2,
3,
1,
1,
0,
2,
1,
1,
2,
0,
2,
0,
0,
0,
0,
3,
1,
0,
0,
0,
0,
1,
1,
1,
0,
1,
0,
0,
0,
0,
0,
1,
0,
0,
0,
0,
0,
0,
0,
0,
0,
1,
0,
0,
0,
1,
0,
0,
1,
0,
0,
0,
0,
0,
0,
0,
0,
0,
0,
0,
0,
0,
0,
0,
0,
0,
0,
0,
0,
0,
0,
0,
0,
0,
1,
0,
0,
0,
0,
0,
0,
0,
0,
0,
0,
0,
0,
0,
0,
0,
0,
0,
0,
0,
0,
0,
0,
0,
0,
0,
0,
0,
0,
0,
0,
0,
0,
0,
0,
0,
0,
0,
0,
0,
0,
0,
0,
0,
0,
0,
0,
0,
0,
0,
0,
0,
0,
0,
0,
0,
0,
#ENDOFDATA   :

File: Si std.msa
#FORMAT      : EMSA/MAS Spectral Data File
#VERSION     : 1.0
#TITLE       : Si std
#DATE        : 20-FEB-2025
#TIME        : 16:09
#OWNER       : Unknown
#NPOINTS     : 4096
#NCOLUMNS    : 1
#XUNITS      : eV
#YUNITS      : counts
#DATATYPE    : Y
#XPERCHAN    : 9.99778
#OFFSET      : 1.69135
#BEAMKV      : 20
#SIGNALTYPE  : EDS
#ELEVANGLE   : 35
#AZIMANGLE   : 0
#LIVETIME    : 1201.07
#REALTIME    : 1374.47
#PROBECUR    : 1.04971
#TAUWIND     : 0
#TDEADLYR    : 0
#TACTLYR     : 0.045
#TALWIND     : 0.025
#CHOFFSET    : 0.0
#XLABEL      : Energy (eV)
#YLABEL      : Counts
#EDSDET      : SD
##SPECIMEN   : Si std
##D2STDCMP   : Si,(Si:100.0),2.95
##DET_HASH   : 12273538-fd48-a23f-0a19-f1e6fa85caef
##CALIB_HASH : 6abaa72c-aa41-8738-0be9-f592914732f3
##WORKING    : 15.0 mm
##SAMPLE     : <BulkSample id="1">\n<mOrientation id="2">\n<double>0.0</double>\n<double>0.0</double>\n<double>-1.0</double>\n</mOrientation>\n</BulkSample>
##MULTISPEC  : 1.50409
##DET_NAME   : EDAX All
##DET_MODE   : MediumLE
#SPECTRUM    :
121,
1281,
14875,
12126,
20430,
26856,
33130,
37095,
39784,
41701,
47126,
62707,
1789460,
761903,
9726,
9349,
10188,
10879,
11185,
11528,
11718,
11730,
11798,
12046,
13463,
53076,
11865,
10312,
10214,
9891,
9688,
9333,
9196,
8864,
8705,
8547,
8100,
7985,
7944,
7693,
7163,
7006,
6827,
6686,
6358,
6328,
6833,
5831,
5678,
5488,
5268,
5259,
4925,
5063,
4703,
4567,
4337,
4275,
4079,
3973,
3799,
3725,
3572,
3452,
3447,
3228,
3075,
2923,
2958,
2823,
2739,
2579,
2559,
2462,
2416,
2372,
2178,
2125,
2096,
1969,
1848,
1861,
1751,
1703,
1629,
1623,
1486,
1483,
1339,
1224,
1222,
1175,
1184,
1092,
1023,
1023,
889,
937,
814,
852,
808,
660,
723,
633,
627,
587,
534,
540,
485,
444,
449,
434,
402,
387,
368,
357,
295,
301,
271,
251,
215,
249,
193,
198,
170,
159,
164,
122,
118,
118,
96,
85,
87,
75,
56,
59,
39,
31,
37,
25,
26,
11,
3,
2,
0,
3,
1,
3,
0,
1,
1,
1,
0,
2,
1,
0,
0,
1,
0,
0,
0,
0,
0,
0,
1,
0,
0,
1,
1,
0,
0,
0,
0,
0,
0,
0,
0,
0,
0,
0,
0,
0,
0,
0,
0,
0,
0,
0,
0,
0,
0,
0,
0,
0,
0,
0,
0,
0,
0,
0,
0,
0,
0,
0,
0,
0,
0,
0,
0,
0,
0,
0,
0,
0,
0,
0,
0,
0,
0,
0,
0,
0,
0,
0,
0,
0,
0,
0,
0,
0,
0,
0,
0,
0,
0,
0,
0,
1,
0,
0,
0,
0,
0,
0,
0,
0,
0,
0,
0,
0,
0,
0,
0,
0,
0,
0,
0,
0,
0,
0,
0,
0,
0,
0,
0,
0,
0,
0,
0,
0,
0,
0,
0,
0,
0,
0,
0,
0,
0,
0,
0,
0,
0,
0,
0,
0,
0,
0,
0,
0,
0,
0,
0,
0,
#ENDOFDATA   :

File: SiO2 std.msa
#FORMAT      : EMSA/MAS Spectral Data File
#VERSION     : 1.0
#TITLE       : SiO2 std
#DATE        : 12-SEP-2025
#TIME        : 09:34
#OWNER       : Unknown
#NPOINTS     : 4096
#NCOLUMNS    : 1
#XUNITS      : eV
#YUNITS      : counts
#DATATYPE    : Y
#XPERCHAN    : 9.99778
#OFFSET      : 1.69135
#BEAMKV      : 20
#SIGNALTYPE  : EDS
#ELEVANGLE   : 35
#AZIMANGLE   : 0
#LIVETIME    : 1201.05
#REALTIME    : 1311.88
#PROBECUR    : 1.23853
#TAUWIND     : 0
#TDEADLYR    : 0
#TACTLYR     : 0.045
#TALWIND     : 0.025
#CHOFFSET    : 0.0
#XLABEL      : Energy (eV)
#YLABEL      : Counts
#EDSDET      : SD
##SPECIMEN   : SiO2 std
##D2STDCMP   : SiO2,(O:53.2565),(Si:46.7435),5.0
##DET_HASH   : 12273538-fd48-a23f-0a19-f1e6fa85caef
##CALIB_HASH : 6abaa72c-aa41-8738-0be9-f592914732f3
##WORKING    : 15.0 mm
##SAMPLE     : <BulkSample id="1">\n<mOrientation id="2">\n<double>0.0</double>\n<double>0.0</double>\n<double>-1.0</double>\n</mOrientation>\n</BulkSample>
##MULTISPEC  : 0.87792
##DET_NAME   : EDAX All
##DET_MODE   : MediumLE
#SPECTRUM    :
118,
1095,
32913,
43780,
417791,
13592,
15392,
18821,
21224,
24000,
28326,
36655,
794446,
356836,
11770,
12151,
21828,
12928,
12603,
12355,
12421,
12225,
11958,
11732,
11863,
19717,
10775,
10291,
9897,
9424,
9203,
8798,
8641,
8423,
8193,
7873,
7522,
7152,
7120,
6762,
6517,
6472,
5909,
5858,
5781,
5523,
5994,
5197,
4978,
4739,
4616,
4403,
4298,
4356,
4093,
3982,
3711,
3667,
3519,
3350,
3295,
3170,
3088,
2913,
2886,
2830,
2607,
2643,
2451,
2462,
2219,
2257,
2199,
2076,
2009,
1930,
1880,
1794,
1691,
1625,
1567,
1552,
1466,
1365,
1298,
1275,
1270,
1180,
1135,
1076,
1032,
954,
897,
849,
859,
798,
782,
737,
695,
630,
649,
607,
542,
534,
555,
459,
435,
435,
379,
389,
348,
324,
317,
311,
257,
272,
223,
220,
183,
187,
178,
171,
153,
141,
130,
148,
105,
100,
107,
71,
79,
71,
70,
49,
48,
36,
30,
27,
27,
21,
16,
4,
3,
2,
1,
0,
1,
0,
0,
1,
0,
1,
0,
1,
0,
1,
0,
0,
0,
0,
0,
0,
0,
1,
0,
0,
1,
0,
0,
0,
0,
0,
1,
0,
1,
0,
0,
0,
0,
1,
0,
0,
0,
0,
0,
0,
0,
0,
0,
0,
0,
0,
0,
0,
0,
0,
0,
0,
0,
0,
0,
0,
0,
0,
0,
0,
0,
0,
0,
0,
0,
1,
0,
0,
0,
0,
0,
0,
0,
0,
0,
0,
0,
0,
0,
0,
0,
0,
0,
0,
0,
0,
0,
0,
0,
0,
0,
0,
0,
0,
0,
0,
0,
0,
0,
0,
0,
0,
0,
0,
0,
0,
0,
0,
0,
0,
0,
0,
0,
0,
0,
0,
0,
0,
0,
0,
0,
0,
0,
0,
0,
0,
0,
0,
0,
0,
0,
0,
0,
0,
0,
0,
0,
0,
0,
0,
0,
0,
0,
0,
0,
0,
0,
0,
#ENDOFDATA   :

File: Sm2O3 std.msa
#FORMAT      : EMSA/MAS Spectral Data File
#VERSION     : 1.0
#TITLE       : Sm2O3 std
#DATE        : 12-SEP-2025
#TIME        : 11:18
#OWNER       : Unknown
#NPOINTS     : 4096
#NCOLUMNS    : 1
#XUNITS      : eV
#YUNITS      : counts
#DATATYPE    : Y
#XPERCHAN    : 9.99778
#OFFSET      : 1.69135
#BEAMKV      : 20
#SIGNALTYPE  : EDS
#ELEVANGLE   : 35
#AZIMANGLE   : 0
#LIVETIME    : 1200.5
#REALTIME    : 1318.22
#PROBECUR    : 1.23977
#TAUWIND     : 0
#TDEADLYR    : 0
#TACTLYR     : 0.045
#TALWIND     : 0.025
#CHOFFSET    : 0.0
#XLABEL      : Energy (eV)
#YLABEL      : Counts
#EDSDET      : SD
##SPECIMEN   : Sm2O3 std
##D2STDCMP   : Sm2O3,(O:13.7639),(Sm:86.2361),5.0
##DET_HASH   : 12273538-fd48-a23f-0a19-f1e6fa85caef
##CALIB_HASH : 6abaa72c-aa41-8738-0be9-f592914732f3
##WORKING    : 15.0 mm
##SAMPLE     : <BulkSample id="1">\n<mOrientation id="2">\n<double>0.0</double>\n<double>0.0</double>\n<double>-1.0</double>\n</mOrientation>\n</BulkSample>
##MULTISPEC  : 9.27722
##DET_NAME   : EDAX All
##DET_MODE   : MediumLE
#SPECTRUM    :
116,
2863,
89440,
64218,
265635,
75873,
170337,
57892,
158905,
44057,
40386,
30018,
31601,
31278,
28912,
29693,
31264,
31806,
32288,
33041,
32523,
32751,
32190,
31743,
31405,
30868,
30346,
30282,
31237,
28700,
28201,
27694,
27481,
26285,
25585,
29889,
36990,
24714,
24290,
31138,
410406,
93047,
22607,
23776,
181690,
103504,
33059,
94939,
24077,
16049,
17600,
41150,
21039,
23422,
18195,
15090,
12743,
12056,
12294,
11936,
11599,
11318,
11287,
10790,
10623,
10286,
10301,
10147,
9829,
9823,
9246,
8957,
8768,
8401,
8361,
8147,
8015,
7684,
7567,
7188,
7110,
7054,
6357,
6278,
6294,
6180,
5789,
5490,
5275,
5073,
4905,
4718,
4515,
4400,
4176,
4024,
3982,
3770,
3596,
3347,
3221,
3141,
2993,
2896,
2722,
2682,
2463,
2366,
2132,
2070,
1993,
1918,
1820,
1719,
1614,
1502,
1374,
1318,
1292,
1187,
1088,
1083,
976,
833,
859,
774,
704,
624,
617,
545,
460,
457,
376,
383,
336,
252,
237,
199,
156,
115,
67,
55,
36,
13,
14,
8,
14,
10,
11,
19,
15,
6,
12,
7,
7,
10,
6,
12,
9,
9,
7,
8,
8,
7,
13,
2,
4,
3,
5,
3,
5,
3,
5,
3,
1,
7,
6,
3,
1,
4,
3,
1,
3,
5,
1,
4,
3,
3,
2,
2,
2,
1,
3,
1,
1,
1,
0,
2,
1,
0,
0,
1,
1,
0,
1,
1,
1,
1,
0,
0,
0,
1,
0,
0,
0,
0,
0,
0,
0,
0,
0,
0,
0,
1,
0,
0,
1,
0,
0,
0,
1,
0,
0,
0,
0,
0,
0,
0,
1,
0,
0,
0,
0,
0,
0,
0,
0,
0,
0,
0,
0,
0,
0,
0,
0,
0,
0,
0,
0,
0,
0,
0,
0,
0,
0,
0,
0,
0,
0,
0,
0,
0,
0,
0,
0,
0,
1,
0,
0,
0,
0,
0,
0,
0,
0,
0,
0,
0,
0,
0,
0,
0,
0,
0,
#ENDOFDATA   :