Folder: spex_quant/N132962/Standards/20 keV

Note: README.md
# spex_quant
Spectral data for evaluating `spex`.  It contains both standard spectra and sample spectra.

 * N132962 represents the TESCAN MIRA4 with 4 silicon nitride window silicon drift detectors in 217 D113 at NIST Gaitherburg.
  * Reference set: "N132962 20 keV" built using 'n132962_20keV.bat' for 20 keV analyses

File: Ag std.msa
#FORMAT      : EMSA/MAS Spectral Data File
#VERSION     : 1.0
#TITLE       : G588 Ag[2][all]+G588 Ag[3][all]+G588 Ag[4][all]
#NPOINTS     : 4096
#NCOLUMNS    : 1
#XUNITS      : eV
#YUNITS      : counts
#DATATYPE    : Y
#SIGNALTYPE  : EDS
#XLABEL      : Energy (eV)
#YLABEL      : Counts
#XPERCHAN -eV: 9.99778
#OFFSET   -eV: 1.69135
#CHOFFSET    : 0
#OWNER       : Unknown
#ELEVANGLE   : 35
#BEAMKV   -kV: 20
#LIVETIME  -s: 717.687
#REALTIME  -s: 793.972
#PROBECUR -nA: 0.83562
##WORKING -mm: 15
##D2STDCMP   : Ag,(Ag:100.0000),5.000
#SPECTRUM    :
76,
4377,
92949,
14865,
16939,
14975,
15777,
15729,
18770,
30566,
27699,
28518,
28967,
28439,
25235,
27790,
51972,
31279,
29179,
63325,
38125,
435730,
177359,
178967,
88098,
34550,
14396,
18915,
25605,
12922,
18434,
14112,
14146,
12522,
12822,
12336,
12341,
11808,
11716,
11663,
11502,
11095,
11201,
11594,
11270,
11169,
11598,
10246,
9848,
9640,
9555,
9410,
8973,
9254,
8856,
8442,
8236,
8109,
8179,
7782,
7379,
7222,
7028,
6982,
6785,
6421,
6281,
6104,
6124,
6049,
6076,
7316,
6228,
5271,
5096,
4973,
4827,
4723,
4525,
4480,
4351,
4264,
3961,
3872,
4164,
4288,
3693,
3299,
3292,
3075,
2949,
2860,
2714,
2673,
2553,
2403,
2278,
2296,
2234,
2194,
1958,
1844,
1786,
1795,
1581,
1584,
1518,
1478,
1264,
1313,
1267,
1139,
1161,
1079,
974,
921,
885,
894,
772,
707,
722,
659,
598,
558,
524,
488,
425,
481,
371,
372,
316,
287,
297,
236,
160,
195,
135,
125,
115,
82,
76,
42,
37,
20,
5,
6,
7,
13,
5,
6,
7,
11,
9,
4,
2,
2,
2,
7,
7,
3,
4,
4,
1,
3,
4,
7,
1,
3,
2,
4,
2,
4,
3,
2,
2,
1,
2,
3,
1,
2,
3,
2,
1,
1,
2,
1,
0,
1,
2,
2,
2,
1,
0,
0,
1,
0,
3,
2,
0,
0,
1,
0,
1,
0,
0,
0,
0,
0,
0,
1,
0,
0,
0,
0,
0,
0,
0,
1,
0,
1,
0,
0,
0,
0,
0,
0,
0,
0,
0,
0,
0,
0,
0,
1,
0,
0,
0,
0,
0,
0,
0,
0,
0,
0,
0,
0,
0,
0,
0,
0,
0,
0,
0,
0,
0,
0,
0,
0,
0,
0,
0,
0,
0,
0,
0,
0,
0,
0,
0,
0,
0,
0,
0,
0,
0,
0,
0,
0,
0,
0,
0,
0,
0,
0,
0,
0,
0,
0,
0,
0,
0,
0,
0,
0,
#ENDOFDATA   :

File: Al2O3 std.msa
#FORMAT      : EMSA/MAS Spectral Data File
#VERSION     : 1.0
#TITLE       : Al2O3 std
#DATE        : 12-SEP-2025
#TIME        : 09:28
#OWNER       : Unknown
#NPOINTS     : 4096
#NCOLUMNS    : 1
#XUNITS      : eV
#YUNITS      : counts
#DATATYPE    : Y
#XPERCHAN    : 9.99778
#OFFSET      : 1.69135
#BEAMKV      : 20
#SIGNALTYPE  : EDS
#ELEVANGLE   : 35
#AZIMANGLE   : 0
#LIVETIME    : 1200.97
#REALTIME    : 1317.01
#PROBECUR    : 1.23853
#TAUWIND     : 0
#TDEADLYR    : 0
#TACTLYR     : 0.045
#TALWIND     : 0.025
#CHOFFSET    : 0.0
#XLABEL      : Energy (eV)
#YLABEL      : Counts
#EDSDET      : SD
##SPECIMEN   : Al2O3 std
##D2STDCMP   : Al2O3,(O:47.0749),(Al:52.9251),4.0
##DET_HASH   : 12273538-fd48-a23f-0a19-f1e6fa85caef
##CALIB_HASH : 6abaa72c-aa41-8738-0be9-f592914732f3
##WORKING    : 15.0 mm
##SAMPLE     : <BulkSample id="1">\n<mOrientation id="2">\n<double>0.0</double>\n<double>0.0</double>\n<double>-1.0</double>\n</mOrientation>\n</BulkSample>
##MULTISPEC  : 1.24231
##DET_NAME   : EDAX All
##DET_MODE   : MediumLE
#SPECTRUM    :
174,
1216,
24108,
46643,
445568,
13615,
16290,
20691,
24401,
33567,
226699,
1032573,
12340,
13002,
19051,
13076,
12821,
12928,
13041,
13230,
12777,
21549,
13228,
11870,
11140,
11183,
10872,
10441,
10142,
9704,
9391,
9047,
8717,
8615,
8069,
7847,
7651,
7279,
7097,
6866,
6462,
6265,
6074,
5869,
5596,
5783,
6096,
5164,
4966,
4746,
4783,
4369,
4429,
4325,
4044,
3918,
3715,
3612,
3501,
3437,
3350,
3132,
3116,
2885,
2833,
2683,
2682,
2540,
2422,
2337,
2358,
2215,
2157,
2093,
1982,
1870,
1853,
1775,
1692,
1664,
1602,
1552,
1397,
1360,
1340,
1223,
1235,
1188,
1136,
1032,
1037,
1033,
950,
857,
775,
816,
793,
696,
677,
653,
611,
560,
555,
544,
503,
483,
429,
430,
412,
347,
338,
350,
302,
300,
266,
250,
242,
255,
210,
184,
180,
148,
181,
155,
118,
110,
124,
103,
94,
93,
75,
71,
56,
50,
47,
32,
33,
19,
26,
19,
9,
7,
5,
1,
0,
3,
0,
0,
1,
0,
1,
0,
0,
0,
0,
0,
1,
1,
0,
0,
0,
0,
0,
0,
1,
0,
0,
0,
0,
1,
0,
0,
0,
0,
0,
0,
0,
0,
0,
0,
0,
1,
0,
1,
0,
0,
0,
0,
0,
0,
1,
0,
0,
0,
0,
0,
0,
0,
0,
0,
0,
0,
0,
0,
0,
0,
0,
0,
0,
0,
0,
0,
0,
1,
0,
0,
0,
0,
0,
0,
0,
0,
0,
0,
0,
0,
0,
0,
0,
0,
0,
0,
0,
0,
0,
0,
0,
0,
0,
0,
0,
0,
0,
0,
0,
0,
0,
0,
0,
0,
0,
0,
0,
0,
0,
0,
0,
0,
0,
0,
0,
0,
0,
0,
0,
0,
0,
0,
0,
0,
0,
0,
0,
0,
0,
0,
0,
0,
0,
0,
0,
0,
0,
0,
0,
0,
0,
0,
0,
0,
0,
0,
0,
0,
#ENDOFDATA   :

File: Al std.msa
#FORMAT      : EMSA/MAS Spectral Data File
#VERSION     : 1.0
#TITLE       : Al std
#DATE        : 20-FEB-2025
#TIME        : 16:03
#OWNER       : Unknown
#NPOINTS     : 4096
#NCOLUMNS    : 1
#XUNITS      : eV
#YUNITS      : counts
#DATATYPE    : Y
#XPERCHAN    : 9.99778
#OFFSET      : 1.69135
#BEAMKV      : 20
#SIGNALTYPE  : EDS
#ELEVANGLE   : 35
#AZIMANGLE   : 0
#LIVETIME    : 719.233
#REALTIME    : 825.443
#PROBECUR    : 1.04971
#TAUWIND     : 0
#TDEADLYR    : 0
#TACTLYR     : 0.045
#TALWIND     : 0.025
#CHOFFSET    : 0.0
#XLABEL      : Energy (eV)
#YLABEL      : Counts
#EDSDET      : SD
##SPECIMEN   : Al std
##D2STDCMP   : Al,(Al:100.0),5.0
##DET_HASH   : 12273538-fd48-a23f-0a19-f1e6fa85caef
##CALIB_HASH : 6abaa72c-aa41-8738-0be9-f592914732f3
##WORKING    : 15.0 mm
##SAMPLE     : <BulkSample id="1">\n<mOrientation id="2">\n<double>0.0</double>\n<double>0.0</double>\n<double>-1.0</double>\n</mOrientation>\n</BulkSample>
##MULTISPEC  : 1.83723
##DET_NAME   : EDAX All
##DET_MODE   : MediumLE
#SPECTRUM    :
75,
622,
10616,
8715,
22428,
19268,
21345,
24121,
26836,
36470,
276723,
1258712,
6471,
6092,
6287,
6348,
6925,
6987,
7237,
7401,
7695,
32187,
9344,
6520,
6306,
6327,
6294,
6056,
5881,
5776,
5624,
5576,
5383,
5021,
5020,
4932,
4586,
4586,
4411,
4312,
4048,
3938,
3884,
3602,
3566,
3539,
3680,
3318,
3128,
3067,
2924,
2778,
2732,
2808,
2651,
2568,
2410,
2405,
2262,
2211,
2065,
1980,
2044,
1988,
1898,
1711,
1746,
1691,
1661,
1544,
1508,
1432,
1396,
1329,
1299,
1293,
1216,
1158,
1178,
1121,
1067,
1017,
980,
913,
876,
811,
826,
778,
778,
744,
643,
653,
605,
537,
559,
566,
532,
518,
432,
430,
417,
378,
383,
364,
338,
365,
297,
302,
290,
251,
244,
239,
233,
206,
212,
171,
163,
139,
150,
128,
112,
114,
105,
86,
81,
80,
68,
70,
61,
56,
56,
56,
32,
43,
31,
29,
24,
18,
18,
11,
3,
9,
4,
1,
0,
1,
2,
0,
1,
0,
0,
0,
0,
0,
2,
0,
1,
0,
0,
0,
0,
0,
0,
0,
0,
0,
0,
0,
0,
1,
0,
0,
0,
0,
0,
0,
0,
0,
0,
0,
0,
0,
0,
0,
2,
0,
0,
1,
0,
0,
0,
0,
0,
0,
0,
0,
0,
0,
0,
0,
0,
0,
0,
0,
0,
0,
0,
0,
0,
0,
0,
0,
0,
0,
0,
0,
0,
0,
0,
0,
0,
0,
0,
0,
0,
0,
0,
0,
0,
0,
0,
0,
0,
0,
0,
0,
0,
0,
0,
0,
0,
0,
0,
0,
0,
0,
0,
0,
0,
0,
0,
0,
0,
0,
0,
0,
0,
0,
0,
0,
0,
0,
0,
0,
0,
0,
0,
0,
0,
0,
0,
0,
0,
0,
0,
0,
0,
0,
0,
0,
0,
0,
0,
0,
0,
0,
0,
0,
0,
0,
0,
0,
0,
0,
#ENDOFDATA   :

File: Albite std.msa
#FORMAT      : EMSA/MAS Spectral Data File
#VERSION     : 1.0
#TITLE       : Albite std
#DATE        : 24-FEB-2025
#TIME        : 09:51
#OWNER       : Unknown
#NPOINTS     : 4096
#NCOLUMNS    : 1
#XUNITS      : eV
#YUNITS      : counts
#DATATYPE    : Y
#XPERCHAN    : 9.99778
#OFFSET      : 1.69135
#BEAMKV      : 20
#SIGNALTYPE  : EDS
#ELEVANGLE   : 35
#AZIMANGLE   : 0
#LIVETIME    : 719.633
#REALTIME    : 768.693
#PROBECUR    : 1.03053
#TAUWIND     : 0
#TDEADLYR    : 0
#TACTLYR     : 0.045
#TALWIND     : 0.025
#CHOFFSET    : 0.0
#XLABEL      : Energy (eV)
#YLABEL      : Counts
#EDSDET      : SD
##SPECIMEN   : Albite std
##D2STDCMP   : Albite,(O:48.8112),(Na:8.7674),(Al:10.2897),(Si:32.1316)
##DET_HASH   : 12273538-fd48-a23f-0a19-f1e6fa85caef
##CALIB_HASH : 6abaa72c-aa41-8738-0be9-f592914732f3
##WORKING    : 15.0 mm
##SAMPLE     : <BulkSample id="1">\n<mOrientation id="2">\n<double>0.0</double>\n<double>0.0</double>\n<double>-1.0</double>\n</mOrientation>\n</BulkSample>
##MULTISPEC  : 1.43837
##DET_NAME   : EDAX All
##DET_MODE   : MediumLE
#SPECTRUM    :
113,
641,
13140,
20963,
214486,
6048,
8543,
44275,
17607,
11310,
29035,
100652,
224656,
106457,
6520,
6289,
8301,
6487,
6454,
6459,
6596,
6404,
5980,
6808,
6827,
6478,
5431,
5106,
5016,
4614,
4530,
4527,
4262,
4147,
4020,
3918,
3787,
3657,
3601,
3326,
3211,
3201,
3015,
3033,
2728,
2693,
2821,
2641,
2388,
2313,
2301,
2253,
2135,
2106,
2054,
1929,
1921,
1879,
1815,
1684,
1624,
1614,
1612,
1443,
1409,
1407,
1353,
1289,
1191,
1170,
1149,
1143,
1030,
1025,
940,
972,
955,
882,
833,
798,
780,
763,
665,
711,
641,
644,
606,
594,
556,
555,
508,
477,
498,
442,
400,
413,
377,
370,
341,
310,
298,
299,
263,
243,
231,
238,
194,
194,
195,
184,
182,
164,
141,
141,
128,
117,
120,
126,
94,
108,
96,
79,
63,
80,
70,
45,
57,
43,
39,
44,
40,
33,
31,
19,
28,
18,
12,
11,
12,
8,
4,
2,
1,
1,
1,
0,
0,
0,
0,
0,
1,
1,
1,
0,
0,
0,
0,
0,
0,
0,
0,
0,
0,
1,
0,
0,
0,
0,
0,
0,
0,
0,
0,
0,
0,
0,
0,
0,
0,
0,
1,
0,
0,
0,
0,
0,
0,
0,
0,
0,
0,
0,
0,
0,
0,
0,
0,
0,
0,
0,
0,
0,
0,
0,
0,
0,
0,
0,
0,
0,
0,
0,
0,
0,
0,
0,
0,
0,
0,
0,
0,
0,
0,
0,
0,
0,
0,
0,
0,
0,
0,
0,
0,
0,
0,
0,
0,
0,
0,
0,
0,
0,
0,
0,
0,
0,
0,
0,
0,
0,
0,
0,
0,
0,
0,
0,
0,
0,
0,
0,
0,
0,
0,
0,
0,
0,
0,
0,
0,
0,
0,
0,
0,
0,
0,
0,
0,
0,
0,
0,
0,
0,
0,
0,
0,
0,
0,
0,
0,
0,
0,
0,
0,
0,
#ENDOFDATA   :

File: AlN std.msa
#FORMAT      : EMSA/MAS Spectral Data File
#VERSION     : 1.0
#TITLE       : AlN std
#DATE        : 24-FEB-2025
#TIME        : 09:57
#OWNER       : Unknown
#NPOINTS     : 4096
#NCOLUMNS    : 1
#XUNITS      : eV
#YUNITS      : counts
#DATATYPE    : Y
#XPERCHAN    : 9.99778
#OFFSET      : 1.69135
#BEAMKV      : 20
#SIGNALTYPE  : EDS
#ELEVANGLE   : 35
#AZIMANGLE   : 0
#LIVETIME    : 959.449
#REALTIME    : 1045.87
#PROBECUR    : 1.03053
#TAUWIND     : 0
#TDEADLYR    : 0
#TACTLYR     : 0.045
#TALWIND     : 0.025
#CHOFFSET    : 0.0
#XLABEL      : Energy (eV)
#YLABEL      : Counts
#EDSDET      : SD
##SPECIMEN   : AlN std
##D2STDCMP   : AlN,(N:34.173),(Al:65.827)
##DET_HASH   : 12273538-fd48-a23f-0a19-f1e6fa85caef
##CALIB_HASH : 6abaa72c-aa41-8738-0be9-f592914732f3
##WORKING    : 15.0 mm
##SAMPLE     : <BulkSample id="1">\n<mOrientation id="2">\n<double>0.0</double>\n<double>0.0</double>\n<double>-1.0</double>\n</mOrientation>\n</BulkSample>
##MULTISPEC  : 6.15043
##DET_NAME   : EDAX All
##DET_MODE   : MediumLE
#SPECTRUM    :
195,
854,
19478,
93253,
9246,
12086,
16370,
20514,
22655,
30464,
221552,
1001762,
7923,
9453,
7901,
8109,
8330,
8684,
8703,
8655,
8553,
18867,
9298,
7771,
7552,
7318,
7173,
6863,
6806,
6489,
6097,
6045,
5806,
5660,
5492,
5327,
5144,
4984,
4656,
4641,
4435,
4357,
4178,
4129,
3912,
3823,
3861,
3505,
3366,
3354,
3178,
3000,
2810,
2953,
2782,
2625,
2545,
2528,
2459,
2309,
2299,
2182,
2163,
2031,
1922,
1832,
1771,
1806,
1711,
1672,
1561,
1492,
1446,
1389,
1375,
1378,
1276,
1181,
1093,
1148,
1076,
1086,
993,
911,
956,
853,
847,
784,
728,
710,
707,
672,
578,
614,
544,
520,
550,
499,
423,
457,
396,
364,
391,
382,
312,
311,
389,
360,
277,
258,
249,
211,
221,
209,
186,
166,
178,
175,
141,
149,
123,
108,
100,
104,
63,
61,
75,
73,
64,
80,
50,
40,
38,
39,
21,
27,
16,
23,
14,
12,
10,
4,
1,
1,
1,
0,
1,
2,
0,
1,
0,
1,
0,
1,
0,
0,
0,
0,
0,
0,
1,
1,
0,
0,
0,
0,
0,
2,
0,
0,
0,
0,
0,
0,
0,
0,
0,
0,
0,
0,
0,
0,
0,
0,
0,
0,
0,
0,
0,
0,
0,
0,
0,
0,
0,
0,
0,
0,
0,
0,
0,
0,
0,
0,
0,
0,
0,
0,
0,
0,
0,
0,
0,
0,
0,
0,
0,
0,
0,
0,
0,
0,
0,
0,
0,
0,
0,
0,
0,
0,
0,
0,
0,
0,
0,
0,
0,
0,
0,
0,
0,
0,
0,
0,
0,
0,
0,
0,
0,
0,
0,
0,
0,
0,
0,
0,
0,
0,
0,
0,
0,
0,
0,
0,
0,
0,
0,
0,
0,
0,
0,
0,
0,
0,
0,
0,
0,
0,
0,
0,
0,
0,
0,
1,
0,
0,
0,
0,
0,
0,
0,
0,
0,
0,
#ENDOFDATA   :

File: Au std.msa
#FORMAT      : EMSA/MAS Spectral Data File
#VERSION     : 1.0
#TITLE       : G588 Au[0][all]+G588 Au[1][all]+G588 Au[2][all]+G588 Au[3][all]+G588 Au[4][all]
#NPOINTS     : 4096
#NCOLUMNS    : 1
#XUNITS      : eV
#YUNITS      : counts
#DATATYPE    : Y
#SIGNALTYPE  : EDS
#XLABEL      : Energy (eV)
#YLABEL      : Counts
#XPERCHAN -eV: 9.99778
#OFFSET   -eV: 1.69135
#CHOFFSET    : 0
#OWNER       : Unknown
#ELEVANGLE   : 35
#BEAMKV   -kV: 20
#LIVETIME  -s: 1200.21
#REALTIME  -s: 1361.35
#PROBECUR -nA: 1.0449
##WORKING -mm: 15
##D2STDCMP   : Au,(Au:100.0000),5.000
#SPECTRUM    :
130,
6487,
61038,
47043,
35656,
41216,
45637,
48765,
54132,
58870,
63113,
71404,
145478,
71700,
89087,
1257919,
620585,
66629,
31526,
33987,
41454,
30349,
30455,
29786,
30800,
29852,
30569,
31083,
31506,
31062,
33027,
33919,
31302,
30841,
30376,
30509,
30051,
29514,
29445,
29510,
28475,
28307,
28068,
27049,
26859,
27891,
29550,
25511,
24999,
24548,
24448,
23770,
23008,
24075,
22684,
21775,
21270,
21141,
20508,
20335,
22459,
25002,
18666,
18092,
17813,
17453,
17110,
16713,
26156,
137425,
74076,
16660,
14894,
14665,
14504,
13452,
13203,
12659,
12492,
13505,
16283,
29303,
53602,
37509,
13386,
12657,
9721,
8632,
8246,
8011,
7780,
7545,
7273,
7196,
6953,
10743,
10372,
6820,
7506,
6188,
5459,
5165,
5058,
4764,
4417,
4193,
4103,
3965,
3725,
3733,
3435,
3418,
3278,
2947,
2890,
2717,
2553,
2405,
2227,
2189,
2081,
1887,
1858,
1647,
1679,
1542,
1464,
1312,
1204,
1156,
1105,
1003,
874,
832,
754,
670,
607,
555,
417,
408,
277,
207,
138,
75,
54,
52,
48,
44,
37,
44,
40,
45,
48,
26,
34,
25,
30,
30,
17,
14,
18,
27,
11,
24,
21,
23,
19,
16,
17,
19,
21,
17,
11,
18,
13,
11,
25,
16,
15,
12,
11,
6,
10,
10,
12,
5,
11,
12,
6,
4,
5,
7,
5,
9,
7,
4,
8,
5,
7,
3,
3,
2,
1,
4,
3,
3,
2,
4,
1,
0,
3,
3,
2,
1,
3,
0,
0,
2,
4,
2,
2,
3,
0,
3,
0,
1,
0,
0,
0,
1,
0,
0,
1,
0,
0,
1,
0,
0,
0,
0,
0,
0,
0,
1,
0,
0,
0,
0,
0,
1,
0,
1,
0,
0,
0,
0,
0,
0,
0,
0,
1,
0,
0,
0,
1,
0,
0,
0,
0,
0,
0,
0,
0,
0,
0,
0,
0,
0,
0,
0,
0,
0,
0,
0,
0,
0,
0,
0,
0,
0,
0,
0,
0,
0,
#ENDOFDATA   :

File: B std.msa
#FORMAT      : EMSA/MAS Spectral Data File
#VERSION     : 1.0
#TITLE       : B std
#DATE        : 19-MAR-2025
#TIME        : 22:46
#OWNER       : Unknown
#NPOINTS     : 4096
#NCOLUMNS    : 1
#XUNITS      : eV
#YUNITS      : counts
#DATATYPE    : Y
#XPERCHAN    : 9.99778
#OFFSET      : 1.69135
#BEAMKV      : 20
#SIGNALTYPE  : EDS
#ELEVANGLE   : 35
#AZIMANGLE   : 0
#LIVETIME    : 1439.24
#REALTIME    : 1458.66
#PROBECUR    : 1.03438
#TAUWIND     : 0
#TDEADLYR    : 0
#TACTLYR     : 0.045
#TALWIND     : 0.025
#CHOFFSET    : 0.0
#XLABEL      : Energy (eV)
#YLABEL      : Counts
#EDSDET      : SD
##SPECIMEN   : B std
##D2STDCMP   : B,(B:100.0),5.0
##DET_HASH   : 12273538-fd48-a23f-0a19-f1e6fa85caef
##CALIB_HASH : 6abaa72c-aa41-8738-0be9-f592914732f3
##WORKING    : 15.0 mm
##SAMPLE     : <BulkSample id="1">\n<mOrientation id="2">\n<double>0.0</double>\n<double>0.0</double>\n<double>-1.0</double>\n</mOrientation>\n</BulkSample>
##MULTISPEC  : 0.872488
##DET_NAME   : EDAX All
##DET_MODE   : MediumLE
#SPECTRUM    :
151,
168756,
13356,
3198,
6253,
8792,
12118,
14792,
15375,
15738,
15767,
14943,
15683,
13747,
10564,
9821,
9055,
8566,
7916,
7368,
6966,
6723,
6072,
5700,
5382,
5117,
4942,
4642,
4402,
4151,
3975,
3781,
3607,
3360,
3365,
3117,
2976,
2804,
2794,
2630,
2478,
2364,
2448,
2174,
2098,
2148,
2287,
1834,
1763,
1730,
1671,
1674,
1541,
1530,
1413,
1302,
1259,
1644,
1438,
1192,
1095,
1191,
1265,
1070,
996,
906,
912,
870,
894,
810,
673,
801,
735,
677,
657,
607,
617,
541,
502,
502,
469,
482,
439,
417,
442,
361,
393,
384,
349,
333,
325,
240,
244,
242,
264,
231,
233,
208,
177,
208,
155,
165,
142,
168,
140,
123,
106,
113,
100,
96,
88,
102,
81,
72,
79,
67,
71,
55,
61,
53,
48,
43,
43,
34,
31,
28,
31,
32,
22,
22,
22,
19,
19,
10,
16,
13,
7,
7,
4,
4,
5,
2,
0,
0,
0,
0,
0,
0,
0,
0,
0,
0,
0,
0,
0,
0,
0,
0,
0,
0,
0,
0,
0,
0,
0,
0,
0,
0,
0,
0,
1,
0,
0,
0,
0,
0,
0,
0,
0,
0,
0,
0,
0,
0,
0,
0,
0,
1,
0,
0,
0,
0,
0,
0,
0,
0,
0,
0,
0,
0,
0,
0,
0,
0,
0,
0,
0,
0,
0,
0,
0,
0,
0,
0,
0,
0,
0,
0,
0,
0,
0,
0,
0,
0,
0,
0,
0,
0,
0,
0,
0,
0,
0,
0,
0,
0,
0,
0,
0,
0,
0,
0,
0,
0,
0,
0,
0,
0,
0,
0,
0,
0,
0,
0,
0,
0,
0,
0,
0,
0,
0,
0,
0,
0,
0,
0,
0,
0,
0,
0,
0,
0,
0,
0,
0,
0,
0,
0,
0,
0,
0,
0,
0,
0,
0,
0,
0,
0,
0,
0,
0,
0,
0,
0,
#ENDOFDATA   :

File: BaCl std.msa
#FORMAT      : EMSA/MAS Spectral Data File
#VERSION     : 1.0
#TITLE       : BaCl std
#DATE        : 15-SEP-2025
#TIME        : 14:17
#OWNER       : Unknown
#NPOINTS     : 4096
#NCOLUMNS    : 1
#XUNITS      : eV
#YUNITS      : counts
#DATATYPE    : Y
#XPERCHAN    : 9.99778
#OFFSET      : 1.69135
#BEAMKV      : 20
#SIGNALTYPE  : EDS
#ELEVANGLE   : 35
#AZIMANGLE   : 0
#LIVETIME    : 1202.71
#REALTIME    : 1331.1
#PROBECUR    : 1.23578
#TAUWIND     : 0
#TDEADLYR    : 0
#TACTLYR     : 0.045
#TALWIND     : 0.025
#CHOFFSET    : 0.0
#XLABEL      : Energy (eV)
#YLABEL      : Counts
#EDSDET      : SD
##SPECIMEN   : BaCl std
##D2STDCMP   : BaCl,(Cl:20.5178),(Ba:79.4822)
##DET_HASH   : 12273538-fd48-a23f-0a19-f1e6fa85caef
##CALIB_HASH : 6abaa72c-aa41-8738-0be9-f592914732f3
##WORKING    : 15.0 mm
##SAMPLE     : <BulkSample id="1">\n<mOrientation id="2">\n<double>0.0</double>\n<double>0.0</double>\n<double>-1.0</double>\n</mOrientation>\n</BulkSample>
##MULTISPEC  : 184.193
##DET_NAME   : EDAX All
##DET_MODE   : MediumLE
#SPECTRUM    :
623,
32804,
35219,
24712,
99863,
48802,
48547,
39988,
28821,
27671,
29885,
33021,
35140,
38142,
33715,
34654,
36251,
36782,
128231,
788445,
127890,
29567,
28439,
27399,
26966,
26757,
26477,
26506,
40259,
28949,
26529,
62204,
512576,
33967,
125009,
168791,
41223,
102840,
21957,
32819,
33404,
24905,
22033,
17200,
15112,
15379,
16229,
14561,
14320,
14107,
14526,
14627,
13453,
14378,
13427,
12834,
12526,
12221,
12013,
11757,
11435,
11164,
11037,
10710,
10686,
9963,
10272,
9779,
9399,
9340,
9191,
9002,
8551,
8320,
8029,
7783,
7734,
7362,
7143,
6977,
6650,
6343,
6297,
6087,
5754,
5651,
5490,
5213,
5137,
4988,
4769,
4553,
4446,
4215,
3941,
3894,
3672,
3556,
3363,
3245,
3173,
2937,
2996,
2684,
2663,
2567,
2374,
2238,
2201,
1980,
1891,
1790,
1730,
1656,
1522,
1457,
1374,
1317,
1209,
1154,
1034,
1022,
972,
889,
863,
774,
708,
658,
607,
563,
497,
446,
411,
385,
338,
286,
279,
224,
179,
160,
125,
77,
34,
24,
16,
11,
14,
18,
16,
12,
11,
12,
11,
8,
14,
6,
12,
3,
5,
11,
10,
8,
1,
4,
5,
5,
7,
4,
5,
9,
2,
4,
4,
1,
1,
3,
4,
2,
1,
2,
1,
1,
0,
1,
2,
3,
2,
3,
4,
1,
4,
3,
3,
1,
1,
2,
3,
3,
0,
1,
1,
0,
0,
0,
0,
0,
0,
1,
0,
0,
0,
0,
1,
0,
1,
0,
0,
0,
0,
0,
0,
0,
1,
0,
0,
0,
0,
1,
1,
0,
0,
0,
0,
1,
0,
0,
0,
0,
0,
0,
0,
0,
0,
0,
0,
0,
0,
0,
0,
0,
0,
0,
0,
0,
0,
0,
0,
0,
0,
0,
0,
0,
1,
0,
0,
0,
0,
0,
0,
0,
0,
0,
0,
0,
0,
0,
0,
0,
0,
0,
0,
0,
0,
0,
0,
0,
0,
0,
0,
0,
0,
0,
0,
0,
#ENDOFDATA   :

File: BaF2 std.msa
#FORMAT      : EMSA/MAS Spectral Data File
#VERSION     : 1.0
#TITLE       : BaF2 std
#DATE        : 20-FEB-2025
#TIME        : 14:09
#OWNER       : Unknown
#NPOINTS     : 4096
#NCOLUMNS    : 1
#XUNITS      : eV
#YUNITS      : counts
#DATATYPE    : Y
#XPERCHAN    : 9.99778
#OFFSET      : 1.69135
#BEAMKV      : 20
#SIGNALTYPE  : EDS
#ELEVANGLE   : 35
#AZIMANGLE   : 0
#LIVETIME    : 956.824
#REALTIME    : 1049.65
#PROBECUR    : 1.04758
#TAUWIND     : 0
#TDEADLYR    : 0
#TACTLYR     : 0.045
#TALWIND     : 0.025
#CHOFFSET    : 0.0
#XLABEL      : Energy (eV)
#YLABEL      : Counts
#EDSDET      : SD
##SPECIMEN   : BaF2 std
##D2STDCMP   : BaF2,(F:21.672),(Ba:78.328),5.0
##DET_HASH   : 12273538-fd48-a23f-0a19-f1e6fa85caef
##CALIB_HASH : 6abaa72c-aa41-8738-0be9-f592914732f3
##WORKING    : 15.0 mm
##SAMPLE     : <BulkSample id="1">\n<mOrientation id="2">\n<double>0.0</double>\n<double>0.0</double>\n<double>-1.0</double>\n</mOrientation>\n</BulkSample>
##MULTISPEC  : 8.67636
##DET_NAME   : EDAX All
##DET_MODE   : MediumLE
#SPECTRUM    :
899,
6603,
61243,
34864,
147127,
513969,
25548,
25274,
17679,
18293,
19666,
21338,
23967,
26502,
23109,
23693,
24369,
24668,
25296,
27180,
25609,
24408,
25607,
23852,
23799,
22973,
22504,
22214,
34777,
23923,
21531,
54072,
455677,
28051,
107884,
148727,
34034,
87366,
16973,
27028,
27144,
19700,
17138,
13289,
11458,
12062,
13489,
10762,
10780,
10493,
10525,
10109,
10062,
10334,
9823,
9517,
8976,
8978,
8924,
8731,
8420,
8119,
7912,
7877,
7852,
7219,
7292,
7165,
6849,
7069,
6470,
6312,
6235,
6032,
5861,
5713,
5513,
5499,
5136,
5058,
4769,
4618,
4546,
4356,
4282,
4101,
3931,
3733,
3578,
3414,
3413,
3227,
3009,
2977,
2770,
2678,
2577,
2459,
2420,
2236,
2175,
2106,
2014,
1872,
1793,
1798,
1618,
1541,
1473,
1391,
1312,
1233,
1127,
1055,
1038,
1007,
938,
844,
811,
700,
725,
671,
628,
581,
521,
495,
458,
421,
381,
355,
320,
241,
228,
172,
166,
145,
134,
100,
70,
44,
23,
11,
8,
9,
10,
17,
11,
6,
10,
9,
8,
13,
8,
6,
7,
1,
4,
1,
4,
4,
2,
9,
6,
2,
3,
6,
0,
1,
3,
1,
3,
1,
1,
1,
3,
4,
0,
1,
3,
1,
5,
1,
1,
2,
0,
4,
0,
0,
2,
1,
1,
4,
1,
0,
3,
0,
1,
0,
0,
0,
1,
0,
1,
0,
1,
0,
0,
1,
0,
0,
1,
1,
1,
0,
1,
0,
2,
0,
0,
1,
0,
0,
0,
0,
0,
1,
0,
0,
0,
0,
0,
0,
0,
0,
0,
0,
0,
0,
0,
0,
1,
0,
0,
0,
0,
0,
0,
0,
0,
0,
0,
0,
0,
0,
0,
0,
0,
0,
0,
0,
0,
0,
0,
0,
0,
0,
0,
0,
0,
0,
0,
0,
0,
0,
0,
0,
0,
0,
0,
0,
0,
0,
0,
0,
0,
0,
0,
0,
0,
0,
0,
0,
0,
0,
#ENDOFDATA   :

File: Bi std.msa
#FORMAT      : EMSA/MAS Spectral Data File
#VERSION     : 1.0
#TITLE       : Bi std
#DATE        : 20-FEB-2025
#TIME        : 14:03
#OWNER       : Unknown
#NPOINTS     : 4096
#NCOLUMNS    : 1
#XUNITS      : eV
#YUNITS      : counts
#DATATYPE    : Y
#XPERCHAN    : 9.99778
#OFFSET      : 1.69135
#BEAMKV      : 20
#SIGNALTYPE  : EDS
#ELEVANGLE   : 35
#AZIMANGLE   : 0
#LIVETIME    : 964.528
#REALTIME    : 1088.75
#PROBECUR    : 1.04741
#TAUWIND     : 0
#TDEADLYR    : 0
#TACTLYR     : 0.045
#TALWIND     : 0.025
#CHOFFSET    : 0.0
#XLABEL      : Energy (eV)
#YLABEL      : Counts
#EDSDET      : SD
##SPECIMEN   : Bi std
##D2STDCMP   : Bi,(Bi:100.0)
##DET_HASH   : 12273538-fd48-a23f-0a19-f1e6fa85caef
##CALIB_HASH : 6abaa72c-aa41-8738-0be9-f592914732f3
##WORKING    : 15.0 mm
##SAMPLE     : <BulkSample id="1">\n<mOrientation id="2">\n<double>0.0</double>\n<double>0.0</double>\n<double>-1.0</double>\n</mOrientation>\n</BulkSample>
##MULTISPEC  : 1.22291
##DET_NAME   : EDAX All
##DET_MODE   : MediumLE
#SPECTRUM    :
113,
10817,
68469,
24967,
31624,
51663,
37926,
36347,
39315,
42819,
46238,
48595,
50902,
67145,
61542,
48063,
65668,
613023,
708732,
49313,
39008,
24922,
27618,
34886,
24746,
24215,
25147,
23940,
24977,
23694,
23982,
24178,
24112,
23697,
24064,
25672,
24780,
23244,
23567,
24464,
22520,
22258,
22206,
21708,
20883,
22753,
27306,
19989,
19947,
19398,
19904,
19108,
18121,
19394,
18111,
17144,
16746,
16494,
16316,
15835,
15255,
15089,
14845,
14386,
14000,
13635,
13861,
16512,
14241,
12702,
12276,
11869,
11553,
11376,
11115,
11126,
16586,
63809,
40484,
10533,
9355,
9086,
8478,
8666,
8493,
7968,
7694,
7459,
7196,
7580,
7433,
7392,
15349,
26690,
9536,
7028,
6349,
4998,
4700,
4551,
4324,
4105,
3998,
3904,
3782,
3520,
3414,
3328,
3965,
4841,
3220,
3047,
3009,
2532,
2317,
2161,
2089,
2007,
1821,
1767,
1683,
1596,
1515,
1396,
1413,
1352,
1190,
1149,
954,
957,
898,
795,
717,
675,
638,
559,
487,
412,
340,
301,
208,
160,
102,
51,
37,
27,
21,
33,
33,
26,
27,
25,
32,
20,
31,
22,
22,
15,
10,
17,
15,
17,
14,
10,
12,
13,
14,
9,
15,
12,
15,
11,
6,
8,
12,
6,
8,
10,
8,
8,
11,
8,
8,
10,
7,
12,
11,
9,
6,
6,
3,
3,
4,
8,
5,
4,
7,
4,
6,
4,
11,
5,
1,
3,
4,
4,
1,
0,
3,
8,
2,
0,
4,
1,
3,
1,
2,
2,
0,
2,
2,
1,
1,
0,
0,
0,
0,
0,
1,
2,
2,
2,
1,
1,
2,
0,
2,
1,
0,
1,
0,
0,
0,
1,
0,
0,
0,
0,
0,
0,
0,
0,
0,
0,
0,
0,
0,
0,
0,
1,
0,
0,
0,
0,
1,
0,
0,
0,
0,
0,
0,
0,
0,
0,
0,
0,
0,
0,
0,
0,
0,
0,
0,
0,
0,
0,
0,
0,
0,
0,
0,
0,
0,
0,
#ENDOFDATA   :

File: BN std.msa
#FORMAT      : EMSA/MAS Spectral Data File
#VERSION     : 1.0
#TITLE       : BN std
#DATE        : 21-FEB-2025
#TIME        : 14:42
#OWNER       : Unknown
#NPOINTS     : 4096
#NCOLUMNS    : 1
#XUNITS      : eV
#YUNITS      : counts
#DATATYPE    : Y
#XPERCHAN    : 9.99778
#OFFSET      : 1.69135
#BEAMKV      : 20
#SIGNALTYPE  : EDS
#ELEVANGLE   : 35
#AZIMANGLE   : 0
#LIVETIME    : 720.474
#REALTIME    : 732.351
#PROBECUR    : 1.06019
#TAUWIND     : 0
#TDEADLYR    : 0
#TACTLYR     : 0.045
#TALWIND     : 0.025
#CHOFFSET    : 0.0
#XLABEL      : Energy (eV)
#YLABEL      : Counts
#EDSDET      : SD
##SPECIMEN   : BN std
##D2STDCMP   : BN,(B:43.5617),(N:56.4384),5.0
##DET_HASH   : 12273538-fd48-a23f-0a19-f1e6fa85caef
##CALIB_HASH : 6abaa72c-aa41-8738-0be9-f592914732f3
##WORKING    : 15.0 mm
##SAMPLE     : <BulkSample id="1">\n<mOrientation id="2">\n<double>0.0</double>\n<double>0.0</double>\n<double>-1.0</double>\n</mOrientation>\n</BulkSample>
##MULTISPEC  : 1.40919
##DET_NAME   : EDAX All
#SPECTRUM    :
117,
16233,
18700,
115855,
5182,
4066,
4782,
5821,
6681,
6983,
7274,
7329,
7217,
6718,
5413,
5095,
4739,
4409,
4119,
3988,
3736,
3472,
3268,
3058,
2873,
2754,
2584,
2506,
2318,
2262,
2021,
2028,
1849,
1834,
1814,
1620,
1577,
1508,
1468,
1475,
1344,
1236,
1226,
1211,
1157,
1091,
1208,
975,
911,
931,
857,
797,
768,
758,
739,
662,
694,
660,
624,
612,
553,
511,
528,
496,
484,
454,
433,
409,
396,
333,
384,
360,
319,
339,
312,
243,
275,
262,
247,
263,
223,
210,
191,
192,
178,
210,
147,
163,
141,
152,
133,
121,
102,
100,
82,
104,
110,
92,
78,
69,
69,
82,
49,
47,
49,
43,
62,
31,
29,
25,
32,
30,
18,
23,
18,
14,
14,
13,
8,
12,
5,
1,
5,
2,
2,
1,
0,
1,
0,
1,
0,
1,
0,
0,
0,
0,
0,
0,
0,
0,
0,
0,
0,
0,
0,
0,
0,
0,
0,
0,
0,
0,
0,
0,
0,
0,
0,
0,
0,
0,
0,
0,
0,
0,
0,
0,
0,
0,
0,
0,
0,
0,
0,
0,
0,
0,
0,
0,
0,
0,
0,
0,
0,
0,
0,
0,
0,
0,
0,
0,
0,
0,
0,
0,
0,
0,
0,
0,
0,
0,
0,
0,
0,
0,
0,
0,
0,
0,
0,
0,
0,
0,
0,
0,
0,
0,
0,
0,
0,
0,
0,
0,
0,
0,
0,
0,
0,
0,
0,
0,
0,
0,
0,
0,
0,
0,
0,
0,
0,
0,
0,
0,
0,
0,
0,
0,
0,
0,
0,
0,
0,
0,
0,
0,
0,
0,
0,
0,
0,
0,
0,
0,
0,
0,
0,
0,
0,
0,
0,
0,
0,
0,
0,
0,
0,
0,
0,
0,
0,
0,
0,
0,
0,
0,
0,
0,
0,
0,
0,
0,
0,
0,
0,
0,
#ENDOFDATA   :