Folder: spex_quant/N132962/Standards/20 keV (part 4)

File: HgTe std.msa
#FORMAT      : EMSA/MAS Spectral Data File
#VERSION     : 1.0
#TITLE       : HgTe std
#DATE        : 24-FEB-2025
#TIME        : 10:34
#OWNER       : Unknown
#NPOINTS     : 4096
#NCOLUMNS    : 1
#XUNITS      : eV
#YUNITS      : counts
#DATATYPE    : Y
#XPERCHAN    : 9.99778
#OFFSET      : 1.69135
#BEAMKV      : 20
#SIGNALTYPE  : EDS
#ELEVANGLE   : 35
#AZIMANGLE   : 0
#LIVETIME    : 719.706
#REALTIME    : 799.5219
#PROBECUR    : 1.03242
#TAUWIND     : 0
#TDEADLYR    : 0
#TACTLYR     : 0.045
#TALWIND     : 0.025
#CHOFFSET    : 0.0
#XLABEL      : Energy (eV)
#YLABEL      : Counts
#EDSDET      : SD
##SPECIMEN   : HgTe std
##D2STDCMP   : HgTe,(Te:38.8799),(Hg:61.1201)
##DET_HASH   : 12273538-fd48-a23f-0a19-f1e6fa85caef
##CALIB_HASH : 6abaa72c-aa41-8738-0be9-f592914732f3
##WORKING    : 15.0 mm
##SAMPLE     : <BulkSample id="1">\n<mOrientation id="2">\n<double>0.0</double>\n<double>0.0</double>\n<double>-1.0</double>\n</mOrientation>\n</BulkSample>
##MULTISPEC  : 0.967238
##DET_NAME   : EDAX All
##DET_MODE   : MediumLE
#SPECTRUM    :
79,
4838,
45217,
39174,
27840,
18426,
22592,
23052,
22558,
24998,
27495,
29529,
51174,
34992,
31680,
71705,
410573,
39327,
33653,
19676,
21829,
22195,
18926,
19269,
24562,
19636,
26890,
197060,
27301,
104615,
28821,
39616,
19739,
23481,
18171,
17192,
14886,
14533,
14681,
14591,
14213,
13945,
13808,
13875,
13396,
13786,
14389,
12766,
12682,
12364,
12277,
11784,
11471,
12090,
11556,
10920,
10796,
10794,
10443,
10081,
9810,
9746,
11530,
9916,
9042,
8674,
8705,
8373,
8214,
8231,
11607,
45712,
23204,
7579,
7033,
6729,
6947,
6400,
5947,
5930,
5800,
5642,
6471,
6492,
14437,
18254,
7709,
5296,
5045,
4342,
4098,
3869,
3780,
3651,
3538,
3390,
3277,
3154,
3743,
4317,
2867,
3080,
2896,
2460,
2270,
2186,
2153,
1915,
1838,
1853,
1724,
1674,
1664,
1513,
1409,
1409,
1230,
1243,
1125,
1122,
972,
967,
934,
935,
791,
741,
711,
669,
602,
595,
503,
471,
448,
342,
351,
301,
286,
266,
198,
150,
126,
83,
60,
27,
16,
14,
19,
11,
18,
14,
14,
11,
19,
11,
12,
11,
20,
20,
10,
10,
6,
8,
7,
9,
5,
2,
5,
2,
5,
2,
7,
1,
8,
4,
4,
5,
8,
5,
4,
6,
4,
5,
1,
4,
3,
4,
3,
4,
4,
3,
2,
3,
3,
1,
1,
4,
0,
2,
2,
3,
3,
1,
2,
1,
1,
0,
1,
2,
0,
1,
0,
0,
0,
1,
0,
0,
1,
1,
0,
0,
0,
0,
0,
0,
1,
0,
1,
0,
0,
0,
1,
0,
0,
0,
1,
0,
0,
1,
0,
0,
0,
0,
0,
0,
0,
0,
0,
0,
0,
0,
0,
0,
0,
0,
0,
0,
0,
0,
0,
0,
0,
0,
0,
0,
0,
0,
0,
0,
0,
0,
0,
0,
0,
0,
0,
0,
0,
0,
0,
0,
0,
0,
0,
0,
0,
0,
0,
0,
0,
0,
0,
0,
0,
0,
#ENDOFDATA   :

File: Ho std.msa
#FORMAT      : EMSA/MAS Spectral Data File
#VERSION     : 1.0
#TITLE       : Ho std
#DATE        : 20-FEB-2025
#TIME        : 13:32
#OWNER       : Unknown
#NPOINTS     : 4096
#NCOLUMNS    : 1
#XUNITS      : eV
#YUNITS      : counts
#DATATYPE    : Y
#XPERCHAN    : 9.99778
#OFFSET      : 1.69135
#BEAMKV      : 20
#SIGNALTYPE  : EDS
#ELEVANGLE   : 35
#AZIMANGLE   : 0
#LIVETIME    : 719.755
#REALTIME    : 797.171
#PROBECUR    : 1.04693
#TAUWIND     : 0
#TDEADLYR    : 0
#TACTLYR     : 0.045
#TALWIND     : 0.025
#CHOFFSET    : 0.0
#XLABEL      : Energy (eV)
#YLABEL      : Counts
#EDSDET      : SD
##SPECIMEN   : Ho std
##D2STDCMP   : Ho,(Ho:100.0),5.0
##DET_HASH   : 12273538-fd48-a23f-0a19-f1e6fa85caef
##CALIB_HASH : 6abaa72c-aa41-8738-0be9-f592914732f3
##WORKING    : 15.0 mm
##SAMPLE     : <BulkSample id="1">\n<mOrientation id="2">\n<double>0.0</double>\n<double>0.0</double>\n<double>-1.0</double>\n</mOrientation>\n</BulkSample>
##MULTISPEC  : 1.04099
##DET_NAME   : EDAX All
##DET_MODE   : MediumLE
#SPECTRUM    :
99,
1974,
37456,
21600,
37468,
42748,
37456,
66762,
53652,
62551,
222329,
28585,
21474,
20659,
15944,
16939,
17335,
18150,
18496,
19611,
19926,
20171,
20098,
20237,
20630,
20500,
20574,
19977,
20168,
19714,
19371,
19434,
19148,
18677,
18597,
18492,
18285,
17549,
17324,
17383,
16529,
16694,
22697,
20146,
15859,
15926,
17791,
39203,
268695,
29344,
14096,
13511,
13362,
47859,
108821,
28247,
39347,
32753,
10960,
9606,
9627,
10014,
20261,
16543,
10472,
13134,
8336,
8289,
7506,
7139,
7011,
6894,
6863,
6694,
6493,
6205,
6138,
5963,
5928,
5780,
5503,
5298,
5153,
5186,
4797,
4817,
4612,
4415,
4254,
4173,
4122,
3804,
3764,
3667,
3388,
3438,
3390,
3082,
2974,
2811,
2833,
2757,
2708,
2449,
2366,
2354,
2191,
2069,
1989,
1848,
1898,
1733,
1595,
1538,
1428,
1387,
1250,
1221,
1139,
1133,
1066,
951,
915,
815,
809,
727,
722,
708,
599,
535,
519,
427,
460,
379,
317,
306,
268,
226,
196,
154,
125,
89,
33,
19,
17,
24,
21,
24,
27,
20,
20,
9,
15,
9,
17,
11,
12,
13,
13,
10,
10,
10,
5,
6,
4,
6,
8,
12,
7,
5,
9,
5,
4,
6,
1,
3,
7,
3,
5,
11,
6,
2,
5,
7,
3,
3,
6,
0,
1,
5,
0,
1,
2,
2,
3,
0,
0,
1,
3,
5,
1,
1,
0,
0,
0,
1,
0,
1,
1,
0,
2,
1,
1,
0,
0,
0,
1,
0,
0,
1,
1,
0,
0,
0,
0,
0,
0,
1,
0,
0,
0,
1,
0,
0,
0,
2,
0,
0,
0,
0,
0,
0,
0,
0,
0,
0,
0,
0,
0,
1,
0,
0,
0,
0,
0,
0,
0,
0,
0,
0,
0,
0,
0,
0,
0,
0,
0,
0,
0,
0,
0,
0,
0,
0,
0,
0,
0,
0,
0,
0,
0,
0,
0,
0,
0,
0,
0,
0,
0,
0,
0,
0,
0,
0,
#ENDOFDATA   :

File: InAs std.msa
#FORMAT      : EMSA/MAS Spectral Data File
#VERSION     : 1.0
#TITLE       : InAs std
#DATE        : 24-FEB-2025
#TIME        : 10:26
#OWNER       : Unknown
#NPOINTS     : 4096
#NCOLUMNS    : 1
#XUNITS      : eV
#YUNITS      : counts
#DATATYPE    : Y
#XPERCHAN    : 9.99778
#OFFSET      : 1.69135
#BEAMKV      : 20
#SIGNALTYPE  : EDS
#ELEVANGLE   : 35
#AZIMANGLE   : 0
#LIVETIME    : 1199.32
#REALTIME    : 1312.72
#PROBECUR    : 1.03242
#TAUWIND     : 0
#TDEADLYR    : 0
#TACTLYR     : 0.045
#TALWIND     : 0.025
#CHOFFSET    : 0.0
#XLABEL      : Energy (eV)
#YLABEL      : Counts
#EDSDET      : SD
##SPECIMEN   : InAs std
##D2STDCMP   : InAs,(As:39.4865),(In:60.5135),5.0
##DET_HASH   : 12273538-fd48-a23f-0a19-f1e6fa85caef
##CALIB_HASH : 6abaa72c-aa41-8738-0be9-f592914732f3
##WORKING    : 15.0 mm
##SAMPLE     : <BulkSample id="1">\n<mOrientation id="2">\n<double>0.0</double>\n<double>0.0</double>\n<double>-1.0</double>\n</mOrientation>\n</BulkSample>
##MULTISPEC  : 1.18858
##DET_NAME   : EDAX All
##DET_MODE   : MediumLE
#SPECTRUM    :
148,
2152,
53577,
36700,
22881,
27456,
27884,
33849,
65871,
554597,
52609,
37154,
31455,
33378,
31091,
31352,
31974,
32947,
33555,
33263,
34628,
51997,
40417,
250915,
232575,
330740,
78174,
63175,
50866,
23449,
28300,
19970,
19864,
20478,
19904,
19454,
19115,
18842,
18550,
18257,
18156,
17725,
17273,
16954,
16706,
16852,
17376,
16149,
15623,
15077,
14818,
14245,
13750,
14461,
13500,
12963,
12501,
12540,
12191,
11767,
11311,
11080,
10815,
10800,
10087,
10151,
9741,
9513,
9310,
8935,
8829,
8772,
8262,
8168,
15512,
89255,
31153,
7460,
6910,
6724,
6481,
6462,
6193,
11261,
15508,
6404,
4999,
4742,
4659,
4389,
4225,
4168,
4011,
3959,
3658,
3657,
3432,
3292,
3149,
3098,
2991,
2815,
2676,
2541,
2337,
2285,
2254,
2106,
1942,
1895,
1782,
1678,
1597,
1458,
1505,
1373,
1264,
1248,
1147,
1137,
990,
949,
867,
839,
825,
720,
682,
613,
589,
510,
479,
408,
414,
355,
317,
276,
236,
206,
169,
173,
121,
79,
42,
28,
11,
10,
12,
20,
18,
9,
25,
25,
5,
9,
6,
9,
5,
6,
10,
8,
7,
7,
7,
11,
6,
4,
2,
5,
4,
4,
2,
1,
3,
2,
3,
2,
3,
4,
7,
5,
0,
2,
3,
3,
2,
2,
5,
4,
2,
2,
4,
0,
2,
2,
3,
0,
4,
0,
1,
0,
1,
0,
1,
0,
1,
0,
1,
1,
1,
2,
0,
1,
1,
1,
1,
1,
0,
1,
0,
0,
0,
1,
0,
0,
0,
0,
0,
0,
0,
0,
0,
0,
0,
0,
0,
0,
0,
0,
0,
0,
0,
0,
0,
0,
0,
0,
0,
0,
0,
0,
0,
0,
0,
0,
0,
0,
0,
0,
0,
0,
0,
0,
0,
0,
0,
0,
0,
0,
0,
0,
0,
0,
0,
0,
0,
0,
0,
0,
0,
0,
0,
0,
0,
0,
0,
0,
0,
0,
0,
0,
0,
0,
0,
0,
#ENDOFDATA   :

File: InP std.msa
#FORMAT      : EMSA/MAS Spectral Data File
#VERSION     : 1.0
#TITLE       : G588 InP[...+G588 InP[...+G588 InP[...+G588 InP[...+G588 InP[...
#NPOINTS     : 4096
#NCOLUMNS    : 1
#XUNITS      : eV
#YUNITS      : counts
#DATATYPE    : Y
#SIGNALTYPE  : EDS
#XLABEL      : Energy (eV)
#YLABEL      : Counts
#XPERCHAN -eV: 9.99778
#OFFSET   -eV: 1.69135
#CHOFFSET    : 0
#OWNER       : Unknown
#ELEVANGLE   : 35
#BEAMKV   -kV: 20
#LIVETIME  -s: 1199.25
#REALTIME  -s: 1322.29
#PROBECUR -nA: 1.04548
##WORKING -mm: 15
##D2STDCMP   : InP,(P:21.2452),(In:78.7548),5.000
#SPECTRUM    :
132,
2825,
62512,
47757,
22082,
26833,
24021,
26115,
29139,
33436,
37741,
52814,
45502,
48772,
379322,
124578,
34549,
33252,
32970,
32657,
34719,
57672,
42931,
319783,
302996,
423056,
92654,
73332,
56345,
22229,
28477,
17887,
17788,
17890,
17616,
17676,
17470,
17700,
18633,
17824,
17048,
16565,
16094,
15953,
15584,
16011,
17825,
15578,
14423,
14531,
14254,
13644,
13276,
13612,
12851,
12121,
11878,
11496,
11493,
11209,
10639,
10503,
10129,
9932,
9689,
9459,
9317,
8973,
8703,
8768,
8341,
8083,
7825,
7617,
7350,
7127,
6732,
6527,
6478,
6389,
6237,
5939,
5857,
5512,
5428,
5182,
4871,
4737,
4464,
4458,
4291,
4064,
3969,
3691,
3756,
3465,
3392,
3122,
3133,
2920,
2872,
2645,
2623,
2464,
2225,
2231,
2092,
2003,
1985,
1828,
1708,
1597,
1570,
1492,
1352,
1330,
1303,
1178,
1094,
1104,
977,
895,
883,
794,
763,
663,
688,
610,
539,
544,
438,
433,
403,
369,
270,
248,
255,
215,
170,
115,
112,
78,
45,
16,
9,
18,
7,
15,
9,
7,
11,
7,
12,
2,
9,
10,
7,
3,
7,
5,
5,
5,
4,
4,
5,
4,
2,
2,
2,
1,
1,
4,
3,
4,
0,
0,
0,
2,
1,
3,
3,
1,
0,
0,
1,
0,
1,
2,
0,
0,
1,
2,
0,
2,
3,
2,
1,
1,
1,
0,
0,
2,
1,
0,
0,
2,
1,
0,
0,
1,
1,
0,
0,
0,
0,
0,
1,
0,
0,
0,
0,
0,
0,
0,
0,
0,
0,
0,
0,
0,
0,
0,
0,
0,
1,
0,
1,
0,
0,
0,
0,
0,
0,
2,
0,
0,
0,
0,
0,
0,
0,
0,
0,
0,
0,
0,
0,
0,
0,
0,
0,
0,
0,
0,
0,
0,
0,
0,
0,
0,
0,
0,
0,
0,
0,
0,
0,
0,
0,
0,
0,
0,
0,
0,
0,
0,
0,
0,
0,
0,
0,
0,
0,
0,
#ENDOFDATA   :

File: Ir std.msa
#FORMAT      : EMSA/MAS Spectral Data File
#VERSION     : 1.0
#TITLE       : Ir std
#DATE        : 21-FEB-2025
#TIME        : 09:51
#OWNER       : Unknown
#NPOINTS     : 4096
#NCOLUMNS    : 1
#XUNITS      : eV
#YUNITS      : counts
#DATATYPE    : Y
#XPERCHAN    : 9.99778
#OFFSET      : 1.69135
#BEAMKV      : 20
#SIGNALTYPE  : EDS
#ELEVANGLE   : 35
#AZIMANGLE   : 0
#LIVETIME    : 1195.29
#REALTIME    : 1357.64
#PROBECUR    : 1.05803
#TAUWIND     : 0
#TDEADLYR    : 0
#TACTLYR     : 0.045
#TALWIND     : 0.025
#CHOFFSET    : 0.0
#XLABEL      : Energy (eV)
#YLABEL      : Counts
#EDSDET      : SD
##SPECIMEN   : Ir std
##D2STDCMP   : Ir,(Ir:100.0),5.0
##DET_HASH   : 12273538-fd48-a23f-0a19-f1e6fa85caef
##CALIB_HASH : 6abaa72c-aa41-8738-0be9-f592914732f3
##WORKING    : 15.0 mm
##SAMPLE     : <BulkSample id="1">\n<mOrientation id="2">\n<double>0.0</double>\n<double>0.0</double>\n<double>-1.0</double>\n</mOrientation>\n</BulkSample>
##MULTISPEC  : 1.52198
##DET_NAME   : EDAX All
##DET_MODE   : MediumLE
#SPECTRUM    :
143,
4779,
71556,
28647,
33566,
42278,
47416,
50780,
57004,
62249,
66979,
175479,
74035,
96783,
1398130,
420531,
66753,
29812,
34099,
33848,
29067,
29189,
29797,
29552,
29799,
30352,
31301,
30892,
33520,
34616,
31381,
31191,
30864,
31075,
30801,
30256,
30343,
29590,
29766,
30307,
28684,
27973,
27909,
27478,
26523,
27696,
30605,
25508,
24839,
24268,
24349,
23290,
22626,
24096,
22470,
21266,
21257,
26910,
24983,
20065,
19594,
18804,
18510,
18138,
22744,
137937,
122046,
18743,
16544,
17077,
15396,
14758,
14348,
13983,
14615,
21468,
52260,
52196,
49412,
17743,
14158,
10918,
9967,
9550,
9317,
9207,
9041,
8775,
8987,
15694,
11897,
8849,
9305,
7591,
6555,
6466,
6263,
5672,
5605,
5423,
5200,
5085,
4758,
4544,
4525,
4120,
4042,
3867,
3835,
3517,
3424,
3281,
3027,
3001,
2736,
2669,
2593,
2420,
2314,
2151,
2050,
1953,
1771,
1720,
1615,
1519,
1413,
1389,
1233,
1146,
1051,
1060,
940,
822,
740,
638,
561,
496,
429,
342,
281,
220,
165,
102,
61,
47,
39,
29,
40,
33,
31,
33,
39,
49,
41,
46,
26,
15,
28,
23,
30,
18,
21,
14,
13,
19,
17,
10,
18,
23,
9,
17,
14,
13,
13,
10,
17,
11,
14,
17,
18,
5,
13,
11,
13,
10,
10,
15,
11,
8,
7,
9,
13,
7,
5,
5,
5,
7,
4,
7,
3,
3,
1,
7,
2,
5,
4,
4,
1,
0,
1,
3,
1,
2,
3,
1,
0,
0,
0,
0,
1,
1,
2,
3,
0,
0,
2,
1,
0,
0,
1,
2,
0,
0,
0,
0,
0,
0,
1,
0,
0,
0,
0,
0,
0,
0,
0,
0,
0,
0,
0,
0,
0,
0,
0,
0,
0,
0,
0,
0,
0,
0,
0,
0,
0,
0,
0,
0,
0,
0,
0,
0,
0,
0,
0,
0,
0,
0,
0,
0,
0,
0,
0,
0,
0,
0,
0,
0,
0,
0,
0,
0,
0,
0,
#ENDOFDATA   :

File: K227 std.msa
#FORMAT      : EMSA/MAS Spectral Data File
#VERSION     : 1.0
#TITLE       : K227 std
#DATE        : 20-FEB-2025
#TIME        : 13:56
#OWNER       : Unknown
#NPOINTS     : 4096
#NCOLUMNS    : 1
#XUNITS      : eV
#YUNITS      : counts
#DATATYPE    : Y
#XPERCHAN    : 9.99778
#OFFSET      : 1.69135
#BEAMKV      : 20
#SIGNALTYPE  : EDS
#ELEVANGLE   : 35
#AZIMANGLE   : 0
#LIVETIME    : 959.802
#REALTIME    : 1059.17
#PROBECUR    : 1.04693
#TAUWIND     : 0
#TDEADLYR    : 0
#TACTLYR     : 0.045
#TALWIND     : 0.025
#CHOFFSET    : 0.0
#XLABEL      : Energy (eV)
#YLABEL      : Counts
#EDSDET      : SD
##SPECIMEN   : K227 std
##D2STDCMP   : K227,(O:16.39),(Si:9.35),(Pb:74.27)
##DET_HASH   : 12273538-fd48-a23f-0a19-f1e6fa85caef
##CALIB_HASH : 6abaa72c-aa41-8738-0be9-f592914732f3
##WORKING    : 15.0 mm
##SAMPLE     : <BulkSample id="1">\n<mOrientation id="2">\n<double>0.0</double>\n<double>0.0</double>\n<double>-1.0</double>\n</mOrientation>\n</BulkSample>
##MULTISPEC  : 1.06492
##DET_NAME   : EDAX All
##DET_MODE   : MediumLE
#SPECTRUM    :
131,
2599,
45888,
24360,
87072,
32987,
27795,
28868,
32240,
35520,
38641,
41910,
143344,
129063,
35847,
37284,
77197,
643139,
106266,
49121,
20294,
22892,
28208,
21260,
19555,
20282,
19531,
20237,
19202,
19976,
19700,
18853,
18715,
18943,
19662,
18644,
18078,
17739,
17658,
17839,
17108,
16501,
16491,
16285,
15524,
16348,
18458,
14840,
14307,
13915,
13973,
13706,
13359,
13771,
12906,
12212,
11809,
11690,
11527,
11256,
10883,
10784,
10292,
10421,
10047,
10897,
11344,
9260,
9067,
8758,
8503,
8396,
8212,
7921,
12426,
48151,
26729,
7425,
6835,
6695,
6399,
6487,
5988,
5723,
5645,
5325,
5551,
5682,
5466,
7997,
21650,
9226,
5069,
4856,
3909,
3525,
3409,
3237,
3100,
3059,
2962,
2856,
2754,
2518,
2521,
3568,
3022,
2268,
2303,
2135,
1864,
1668,
1656,
1557,
1424,
1332,
1311,
1201,
1189,
1080,
1022,
997,
883,
915,
837,
764,
705,
641,
584,
517,
534,
442,
397,
378,
347,
273,
255,
224,
177,
164,
120,
65,
37,
20,
16,
19,
20,
17,
11,
9,
13,
18,
12,
9,
8,
9,
5,
11,
10,
8,
3,
6,
6,
9,
5,
10,
6,
6,
6,
4,
7,
7,
6,
3,
2,
6,
9,
1,
5,
4,
4,
2,
1,
3,
2,
0,
4,
4,
1,
3,
2,
3,
2,
2,
4,
1,
4,
3,
0,
1,
0,
1,
2,
0,
1,
1,
0,
1,
1,
0,
1,
0,
1,
1,
1,
2,
0,
0,
0,
0,
1,
1,
0,
0,
0,
0,
0,
0,
0,
0,
0,
1,
0,
1,
0,
0,
0,
0,
0,
0,
0,
0,
0,
0,
0,
0,
0,
0,
0,
0,
0,
0,
0,
0,
0,
0,
0,
0,
0,
0,
0,
0,
0,
0,
0,
0,
0,
0,
0,
0,
0,
0,
0,
0,
0,
0,
0,
0,
0,
0,
0,
0,
0,
0,
0,
0,
0,
0,
0,
0,
0,
0,
0,
0,
#ENDOFDATA   :

File: KBr std.msa
#FORMAT      : EMSA/MAS Spectral Data File
#VERSION     : 1.0
#TITLE       : KBr std
#DATE        : 21-FEB-2025
#TIME        : 10:09
#OWNER       : Unknown
#NPOINTS     : 4096
#NCOLUMNS    : 1
#XUNITS      : eV
#YUNITS      : counts
#DATATYPE    : Y
#XPERCHAN    : 9.99778
#OFFSET      : 1.69135
#BEAMKV      : 20
#SIGNALTYPE  : EDS
#ELEVANGLE   : 35
#AZIMANGLE   : 0
#LIVETIME    : 720.404
#REALTIME    : 797.374
#PROBECUR    : 1.05806
#TAUWIND     : 0
#TDEADLYR    : 0
#TACTLYR     : 0.045
#TALWIND     : 0.025
#CHOFFSET    : 0.0
#XLABEL      : Energy (eV)
#YLABEL      : Counts
#EDSDET      : SD
##SPECIMEN   : KBr std
##D2STDCMP   : KBr,(K:32.8551),(Br:67.1449),5.0
##DET_HASH   : 12273538-fd48-a23f-0a19-f1e6fa85caef
##CALIB_HASH : 6abaa72c-aa41-8738-0be9-f592914732f3
##WORKING    : 15.0 mm
##SAMPLE     : <BulkSample id="1">\n<mOrientation id="2">\n<double>0.0</double>\n<double>0.0</double>\n<double>-1.0</double>\n</mOrientation>\n</BulkSample>
##MULTISPEC  : 29.3646
##DET_NAME   : EDAX All
##DET_MODE   : MediumLE
#SPECTRUM    :
84,
908,
24650,
7538,
12715,
17601,
22761,
24315,
27940,
59169,
121538,
646050,
15720,
14370,
12062,
13140,
13310,
13840,
14234,
14581,
14811,
16876,
15696,
71883,
309953,
23850,
44858,
10839,
10656,
10509,
10398,
10068,
10178,
10093,
11278,
10511,
9482,
9205,
8863,
8920,
8478,
8047,
8048,
7717,
7626,
7792,
8708,
7343,
6964,
6565,
6561,
6451,
6114,
6274,
5931,
5529,
5381,
5230,
5079,
5023,
4863,
4778,
4490,
4349,
4337,
4217,
4047,
3918,
3715,
3654,
3608,
3554,
3444,
3400,
3224,
3067,
3040,
2919,
2821,
2589,
2654,
2489,
2477,
2473,
10070,
38275,
9351,
2055,
1925,
1867,
1722,
1743,
1627,
1675,
3110,
6170,
2400,
1422,
1206,
1078,
1098,
1039,
983,
923,
960,
845,
785,
710,
729,
735,
692,
601,
568,
529,
532,
483,
476,
452,
357,
375,
341,
314,
325,
287,
265,
225,
210,
183,
178,
143,
139,
120,
122,
98,
88,
76,
46,
46,
25,
22,
15,
6,
7,
6,
5,
2,
7,
4,
5,
3,
2,
5,
5,
4,
2,
2,
3,
1,
3,
0,
2,
2,
1,
1,
2,
0,
1,
0,
2,
4,
6,
3,
3,
1,
0,
3,
0,
0,
0,
0,
2,
1,
0,
0,
0,
0,
1,
1,
2,
1,
0,
1,
2,
0,
1,
3,
2,
0,
0,
0,
0,
0,
1,
0,
0,
0,
0,
0,
0,
0,
0,
0,
1,
0,
0,
0,
0,
0,
0,
0,
0,
0,
0,
0,
0,
0,
0,
0,
0,
0,
0,
0,
0,
0,
0,
0,
0,
0,
0,
0,
0,
0,
0,
0,
0,
0,
0,
0,
0,
0,
0,
0,
0,
0,
0,
0,
0,
0,
0,
0,
0,
0,
0,
0,
0,
0,
0,
0,
0,
0,
0,
0,
0,
0,
0,
0,
0,
0,
0,
0,
0,
0,
0,
0,
0,
0,
0,
0,
0,
0,
0,
0,
0,
0,
#ENDOFDATA   :

File: KCl std.msa
#FORMAT      : EMSA/MAS Spectral Data File
#VERSION     : 1.0
#TITLE       : KCl std
#DATE        : 11-SEP-2025
#TIME        : 14:21
#OWNER       : Unknown
#NPOINTS     : 4096
#NCOLUMNS    : 1
#XUNITS      : eV
#YUNITS      : counts
#DATATYPE    : Y
#XPERCHAN    : 9.99778
#OFFSET      : 1.69135
#BEAMKV      : 20
#SIGNALTYPE  : EDS
#ELEVANGLE   : 35
#AZIMANGLE   : 0
#LIVETIME    : 2154.47
#REALTIME    : 2409.83
#PROBECUR    : 1.22368
#TAUWIND     : 0
#TDEADLYR    : 0
#TACTLYR     : 0.045
#TALWIND     : 0.025
#CHOFFSET    : 0.0
#XLABEL      : Energy (eV)
#YLABEL      : Counts
#EDSDET      : SD
##SPECIMEN   : KCl std
##D2STDCMP   : KCl,(Cl:47.5531),(K:52.4469)
##DET_HASH   : 12273538-fd48-a23f-0a19-f1e6fa85caef
##CALIB_HASH : 6abaa72c-aa41-8738-0be9-f592914732f3
##WORKING    : 15.0 mm
##SAMPLE     : <BulkSample id="1">\n<mOrientation id="2">\n<double>0.0</double>\n<double>0.0</double>\n<double>-1.0</double>\n</mOrientation>\n</BulkSample>
##MULTISPEC  : 12.5743
##DET_NAME   : EDAX All
##DET_MODE   : MediumLE
#SPECTRUM    :
208,
23615,
115366,
16644,
32532,
34055,
81278,
53125,
60948,
64867,
69113,
96118,
76609,
75701,
61583,
60821,
61171,
61616,
321457,
2504461,
344561,
40418,
35729,
326653,
1508885,
85890,
191209,
21688,
22281,
21849,
22006,
21354,
21351,
20903,
20718,
20359,
20145,
23255,
22482,
20048,
18207,
17667,
22961,
20704,
17536,
16399,
16443,
17099,
15460,
14536,
13756,
13260,
12820,
13148,
12448,
11871,
11351,
11015,
10637,
10405,
10082,
9801,
9697,
9140,
8959,
8503,
8515,
8171,
8186,
7541,
7378,
7099,
7039,
6875,
6522,
6256,
6192,
5876,
5697,
5474,
5226,
5147,
4979,
4555,
4482,
4325,
4131,
4035,
3769,
3672,
3564,
3398,
3241,
3060,
2994,
2731,
2638,
2573,
2380,
2289,
2171,
2087,
1879,
1801,
1755,
1660,
1588,
1493,
1350,
1325,
1239,
1177,
1152,
1029,
955,
942,
836,
818,
750,
697,
632,
595,
544,
519,
480,
409,
353,
333,
312,
285,
246,
207,
169,
174,
137,
130,
101,
71,
62,
40,
11,
8,
7,
11,
8,
9,
5,
5,
7,
5,
5,
2,
5,
4,
5,
2,
1,
4,
4,
0,
3,
0,
4,
5,
0,
2,
1,
1,
3,
0,
2,
0,
2,
1,
1,
2,
0,
2,
1,
0,
0,
0,
1,
1,
0,
1,
0,
0,
0,
0,
1,
0,
0,
0,
2,
0,
0,
1,
0,
0,
0,
0,
0,
0,
0,
0,
0,
0,
0,
0,
0,
0,
0,
0,
0,
0,
0,
0,
0,
0,
0,
0,
0,
0,
0,
0,
0,
0,
0,
0,
0,
0,
1,
0,
0,
0,
0,
0,
0,
0,
0,
0,
1,
0,
0,
0,
0,
0,
0,
0,
0,
0,
0,
0,
0,
0,
0,
0,
0,
0,
0,
0,
0,
0,
0,
0,
0,
0,
0,
0,
0,
0,
0,
0,
0,
0,
0,
0,
0,
0,
0,
0,
0,
0,
0,
0,
0,
0,
0,
0,
0,
0,
0,
0,
#ENDOFDATA   :

File: LaB6 std.msa
#FORMAT      : EMSA/MAS Spectral Data File
#VERSION     : 1.0
#TITLE       : LaB6 std
#DATE        : 12-SEP-2025
#TIME        : 12:43
#OWNER       : Unknown
#NPOINTS     : 4096
#NCOLUMNS    : 1
#XUNITS      : eV
#YUNITS      : counts
#DATATYPE    : Y
#XPERCHAN    : 9.99778
#OFFSET      : 1.69135
#BEAMKV      : 20
#SIGNALTYPE  : EDS
#ELEVANGLE   : 35
#AZIMANGLE   : 0
#LIVETIME    : 1439.15
#REALTIME    : 1562.91
#PROBECUR    : 1.24379
#TAUWIND     : 0
#TDEADLYR    : 0
#TACTLYR     : 0.045
#TALWIND     : 0.025
#CHOFFSET    : 0.0
#XLABEL      : Energy (eV)
#YLABEL      : Counts
#EDSDET      : SD
##SPECIMEN   : LaB6 std
##D2STDCMP   : LaB6,(B:31.8327),(La:68.1673)
##DET_HASH   : 12273538-fd48-a23f-0a19-f1e6fa85caef
##CALIB_HASH : 6abaa72c-aa41-8738-0be9-f592914732f3
##WORKING    : 15.0 mm
##SAMPLE     : <BulkSample id="1">\n<mOrientation id="2">\n<double>0.0</double>\n<double>0.0</double>\n<double>-1.0</double>\n</mOrientation>\n</BulkSample>
##MULTISPEC  : 1.19495
##DET_NAME   : EDAX All
##DET_MODE   : MediumLE
#SPECTRUM    :
154,
127282,
43320,
33524,
78484,
79265,
133505,
38753,
41561,
30012,
32575,
35639,
38990,
41258,
37177,
38417,
39344,
40025,
39281,
39410,
39539,
43309,
37935,
37860,
37415,
35117,
35293,
33825,
32724,
44869,
39906,
31751,
43454,
616379,
102294,
39493,
356293,
91213,
85497,
70298,
22941,
50229,
31605,
33126,
22975,
20309,
19881,
16712,
16307,
16184,
16231,
15684,
15168,
15710,
15081,
14392,
13688,
13600,
13400,
13389,
12765,
12400,
12036,
11865,
11622,
11394,
11128,
10973,
10597,
10553,
10255,
9807,
9662,
9003,
8711,
8775,
8529,
8174,
7789,
7588,
7400,
6980,
6907,
6642,
6315,
6047,
6025,
5799,
5522,
5215,
5051,
4881,
4727,
4631,
4279,
4237,
4097,
3819,
3668,
3558,
3317,
3238,
3079,
2967,
2680,
2616,
2533,
2446,
2333,
2124,
2044,
1893,
1906,
1812,
1606,
1542,
1466,
1318,
1244,
1216,
1141,
1104,
1039,
885,
931,
780,
710,
674,
596,
597,
548,
487,
394,
402,
328,
296,
259,
255,
188,
143,
115,
80,
46,
30,
14,
13,
12,
15,
9,
21,
9,
5,
15,
12,
13,
6,
12,
7,
6,
10,
8,
11,
5,
4,
5,
6,
2,
4,
3,
6,
5,
0,
4,
1,
1,
1,
4,
6,
2,
0,
3,
5,
4,
4,
1,
2,
3,
1,
3,
3,
1,
1,
1,
1,
1,
1,
1,
1,
1,
1,
2,
4,
0,
1,
0,
3,
0,
1,
0,
0,
0,
0,
0,
0,
0,
0,
0,
0,
0,
0,
0,
0,
0,
0,
0,
1,
0,
0,
0,
1,
0,
0,
0,
0,
0,
0,
0,
0,
0,
0,
0,
0,
1,
0,
0,
0,
0,
0,
0,
0,
0,
0,
0,
0,
0,
0,
0,
0,
0,
0,
0,
0,
0,
0,
0,
0,
0,
0,
0,
0,
0,
0,
0,
0,
0,
0,
0,
0,
0,
0,
0,
0,
0,
0,
0,
0,
0,
0,
0,
0,
0,
0,
0,
0,
#ENDOFDATA   :

File: LiF std.msa
#FORMAT      : EMSA/MAS Spectral Data File
#VERSION     : 1.0
#TITLE       : LiF std
#DATE        : 21-MAR-2025
#TIME        : 14:42
#OWNER       : Unknown
#NPOINTS     : 4096
#NCOLUMNS    : 1
#XUNITS      : eV
#YUNITS      : counts
#DATATYPE    : Y
#XPERCHAN    : 9.99778
#OFFSET      : 1.69135
#BEAMKV      : 20
#SIGNALTYPE  : EDS
#ELEVANGLE   : 35
#AZIMANGLE   : 0
#LIVETIME    : 958.413
#REALTIME    : 1044.72
#PROBECUR    : 1.02926
#TAUWIND     : 0
#TDEADLYR    : 0
#TACTLYR     : 0.045
#TALWIND     : 0.025
#CHOFFSET    : 0.0
#XLABEL      : Energy (eV)
#YLABEL      : Counts
#EDSDET      : SD
##SPECIMEN   : LiF std
##D2STDCMP   : LiF,(Li:26.7557),(F:73.2443)
##DET_HASH   : 12273538-fd48-a23f-0a19-f1e6fa85caef
##CALIB_HASH : 6abaa72c-aa41-8738-0be9-f592914732f3
##WORKING    : 15.0 mm
##SAMPLE     : <BulkSample id="1">\n<mOrientation id="2">\n<double>0.0</double>\n<double>0.0</double>\n<double>-1.0</double>\n</mOrientation>\n</BulkSample>
##MULTISPEC  : 1.17406
##DET_NAME   : EDAX All
##DET_MODE   : MediumLE
#SPECTRUM    :
104,
1982,
22701,
22642,
80819,
2547504,
4015,
5714,
6596,
10877,
17408,
8763,
9151,
9342,
8238,
7886,
7709,
7539,
7461,
7161,
6843,
6394,
6177,
5815,
5514,
5218,
5156,
4906,
4675,
4445,
4228,
4089,
3912,
3672,
3599,
3365,
3336,
3204,
3104,
2899,
2830,
2765,
2611,
2491,
2486,
2351,
2273,
2159,
2041,
1996,
1920,
1859,
1764,
1763,
1657,
1556,
1499,
1705,
1552,
1344,
1282,
1314,
1330,
1167,
1120,
1093,
1082,
1008,
949,
877,
904,
883,
842,
803,
788,
756,
708,
684,
656,
633,
636,
542,
543,
535,
481,
480,
463,
449,
455,
381,
375,
357,
341,
345,
291,
281,
281,
263,
246,
245,
216,
217,
197,
192,
188,
170,
153,
144,
167,
147,
122,
109,
108,
81,
126,
99,
77,
82,
76,
55,
43,
64,
56,
66,
37,
42,
35,
27,
29,
27,
29,
19,
17,
16,
13,
13,
17,
9,
11,
6,
3,
3,
1,
1,
0,
0,
0,
0,
0,
0,
0,
0,
0,
0,
0,
0,
0,
0,
0,
0,
0,
0,
0,
0,
0,
1,
0,
0,
1,
0,
0,
0,
0,
0,
0,
0,
0,
0,
0,
0,
0,
0,
0,
0,
0,
0,
0,
0,
0,
0,
0,
0,
0,
0,
0,
0,
0,
0,
0,
0,
0,
0,
0,
0,
0,
0,
0,
0,
0,
0,
0,
0,
0,
0,
0,
0,
0,
0,
0,
0,
0,
0,
0,
0,
0,
0,
0,
0,
0,
0,
0,
0,
0,
0,
0,
0,
0,
0,
0,
0,
0,
0,
0,
0,
0,
0,
0,
0,
0,
0,
0,
0,
0,
0,
0,
0,
0,
0,
0,
0,
0,
0,
0,
0,
0,
0,
0,
0,
0,
0,
0,
0,
0,
0,
0,
0,
0,
0,
0,
0,
0,
0,
0,
0,
0,
0,
0,
0,
0,
0,
0,
0,
0,
0,
#ENDOFDATA   :