Folder: spex_quant/N132962/Quantification/15 keV/GMIIIA (part 13)

File: GMIIIA K1080[5][4].msa
#FORMAT      : EMSA/MAS Spectral Data File
#VERSION     : 1.0
#TITLE       : GMIIIA K1080[5][all]
#DATE        : 22-SEP-2025
#TIME        : 20:55
#OWNER       : Unknown
#NPOINTS     : 4096
#NCOLUMNS    : 1
#XUNITS      : eV
#YUNITS      : counts
#DATATYPE    : Y
#XPERCHAN    : 9.99778
#OFFSET      : 1.69135
#BEAMKV      : 15
#SIGNALTYPE  : EDS
#ELEVANGLE   : 35
#AZIMANGLE   : 0
#LIVETIME    : 239.891
#REALTIME    : 255.274
#PROBECUR    : 1.2178
#TAUWIND     : 0
#TDEADLYR    : 0
#TACTLYR     : 0.045
#TALWIND     : 0.025
#CHOFFSET    : 0.0
#XLABEL      : Energy (eV)
#YLABEL      : Counts
#XPOSITION   : 0.41814
#YPOSITION   : 15.66926
#ZPOSITION   : 37.36299
#EDSDET      : SD
##SPECIMEN   : GMIIIA K1080[5][all]
##D2STDCMP   : K1080,(Li:2.79),(B:0.62),(O:41.65),(Mg:1.21),(Al:7.94),(Si:18.7),(Ca:10.72),(Ti:1.2),(Sr:12.68),(Zr:0.74),(Lu:1.76)
##DET_HASH   : 12273538-fd48-a23f-0a19-f1e6fa85caef
##CALIB_HASH : 6abaa72c-aa41-8738-0be9-f592914732f3
##WORKING    : 15.0 mm
##DET_NAME   : EDAX All
##DET_MODE   : MediumLE
#SPECTRUM    :
20,
312,
8420,
7622,
54418,
3744,
4227,
4835,
5377,
15889,
9965,
31735,
48228,
67221,
6306,
4076,
3465,
2864,
2713,
2702,
2540,
2610,
2440,
2564,
2243,
2575,
20428,
7918,
2676,
4459,
1728,
1608,
3802,
1760,
1440,
1644,
1398,
1332,
1347,
1261,
1164,
1128,
1109,
1049,
940,
951,
925,
858,
858,
824,
769,
751,
767,
682,
775,
859,
641,
595,
540,
562,
527,
485,
568,
496,
441,
451,
394,
391,
360,
396,
356,
316,
301,
308,
245,
253,
250,
271,
217,
185,
207,
182,
177,
170,
137,
137,
122,
121,
95,
117,
90,
83,
79,
75,
61,
48,
45,
56,
39,
34,
28,
26,
22,
21,
19,
7,
5,
3,
2,
0,
1,
2,
0,
1,
0,
0,
1,
0,
1,
1,
0,
0,
0,
0,
0,
0,
0,
0,
0,
0,
0,
0,
0,
0,
0,
0,
0,
0,
0,
0,
0,
0,
0,
0,
0,
0,
0,
0,
0,
0,
0,
0,
0,
0,
0,
0,
0,
0,
0,
0,
0,
0,
0,
0,
0,
0,
0,
0,
0,
0,
0,
0,
0,
0,
0,
0,
0,
0,
0,
1,
0,
0,
0,
0,
0,
0,
0,
0,
0,
0,
0,
0,
0,
0,
0,
0,
0,
0,
0,
0,
0,
0,
0,
0,
0,
0,
0,
0,
0,
0,
0,
0,
0,
0,
0,
0,
0,
0,
0,
0,
0,
0,
0,
0,
0,
0,
0,
0,
0,
0,
0,
0,
0,
0,
0,
0,
0,
0,
0,
0,
0,
0,
0,
0,
0,
0,
0,
0,
0,
0,
0,
0,
0,
0,
0,
0,
0,
0,
0,
0,
0,
0,
0,
0,
0,
0,
0,
0,
0,
0,
0,
0,
0,
0,
0,
0,
0,
0,
0,
0,
0,
0,
0,
0,
0,
0,
0,
0,
0,
0,
0,
0,
0,
0,
#ENDOFDATA   :

File: GMIIIA K1080[6][4].msa
#FORMAT      : EMSA/MAS Spectral Data File
#VERSION     : 1.0
#TITLE       : GMIIIA K1080[6][all]
#DATE        : 22-SEP-2025
#TIME        : 20:56
#OWNER       : Unknown
#NPOINTS     : 4096
#NCOLUMNS    : 1
#XUNITS      : eV
#YUNITS      : counts
#DATATYPE    : Y
#XPERCHAN    : 9.99778
#OFFSET      : 1.69135
#BEAMKV      : 15
#SIGNALTYPE  : EDS
#ELEVANGLE   : 35
#AZIMANGLE   : 0
#LIVETIME    : 239.937
#REALTIME    : 255.338
#PROBECUR    : 1.2178
#TAUWIND     : 0
#TDEADLYR    : 0
#TACTLYR     : 0.045
#TALWIND     : 0.025
#CHOFFSET    : 0.0
#XLABEL      : Energy (eV)
#YLABEL      : Counts
#XPOSITION   : 0.39789
#YPOSITION   : 15.75911
#ZPOSITION   : 37.36299
#EDSDET      : SD
##SPECIMEN   : GMIIIA K1080[6][all]
##D2STDCMP   : K1080,(Li:2.79),(B:0.62),(O:41.65),(Mg:1.21),(Al:7.94),(Si:18.7),(Ca:10.72),(Ti:1.2),(Sr:12.68),(Zr:0.74),(Lu:1.76)
##DET_HASH   : 12273538-fd48-a23f-0a19-f1e6fa85caef
##CALIB_HASH : 6abaa72c-aa41-8738-0be9-f592914732f3
##WORKING    : 15.0 mm
##DET_NAME   : EDAX All
##DET_MODE   : MediumLE
#SPECTRUM    :
16,
282,
8678,
7745,
54449,
3747,
4105,
4969,
5276,
15837,
10105,
31445,
48287,
67527,
6422,
4095,
3495,
2874,
2797,
2593,
2575,
2590,
2494,
2401,
2313,
2433,
20559,
7799,
2646,
4481,
1712,
1578,
3751,
1803,
1455,
1740,
1386,
1306,
1239,
1310,
1222,
1118,
1075,
1039,
996,
972,
975,
859,
875,
794,
828,
763,
742,
696,
830,
895,
614,
586,
585,
587,
522,
499,
594,
507,
452,
466,
413,
399,
352,
382,
338,
302,
303,
305,
317,
265,
233,
219,
216,
200,
209,
206,
162,
168,
156,
161,
135,
114,
123,
90,
101,
79,
67,
73,
64,
45,
66,
49,
34,
41,
34,
32,
25,
18,
15,
10,
6,
3,
0,
2,
1,
1,
0,
1,
0,
0,
0,
0,
0,
0,
0,
0,
0,
2,
0,
0,
0,
0,
0,
0,
0,
0,
0,
0,
0,
0,
0,
0,
0,
0,
0,
0,
0,
0,
0,
0,
0,
0,
0,
0,
0,
0,
0,
0,
0,
0,
0,
0,
0,
0,
0,
0,
0,
0,
0,
0,
0,
0,
0,
0,
0,
0,
0,
0,
0,
0,
0,
0,
0,
0,
0,
0,
0,
0,
0,
0,
0,
0,
0,
0,
0,
0,
0,
0,
0,
0,
0,
0,
0,
0,
0,
0,
0,
0,
0,
0,
0,
0,
0,
0,
0,
0,
0,
0,
0,
0,
0,
0,
0,
0,
0,
0,
0,
0,
0,
0,
0,
0,
0,
0,
0,
0,
0,
0,
0,
0,
0,
0,
0,
0,
0,
0,
0,
0,
0,
0,
0,
0,
0,
0,
0,
0,
0,
0,
0,
0,
0,
0,
0,
0,
0,
0,
0,
0,
0,
0,
0,
0,
0,
0,
0,
0,
0,
0,
0,
0,
0,
0,
0,
0,
0,
0,
0,
0,
0,
0,
0,
0,
0,
0,
0,
0,
0,
0,
#ENDOFDATA   :

File: GMIIIA K1080[7][4].msa
#FORMAT      : EMSA/MAS Spectral Data File
#VERSION     : 1.0
#TITLE       : GMIIIA K1080[7][all]
#DATE        : 22-SEP-2025
#TIME        : 20:57
#OWNER       : Unknown
#NPOINTS     : 4096
#NCOLUMNS    : 1
#XUNITS      : eV
#YUNITS      : counts
#DATATYPE    : Y
#XPERCHAN    : 9.99778
#OFFSET      : 1.69135
#BEAMKV      : 15
#SIGNALTYPE  : EDS
#ELEVANGLE   : 35
#AZIMANGLE   : 0
#LIVETIME    : 239.951
#REALTIME    : 255.333
#PROBECUR    : 1.2178
#TAUWIND     : 0
#TDEADLYR    : 0
#TACTLYR     : 0.045
#TALWIND     : 0.025
#CHOFFSET    : 0.0
#XLABEL      : Energy (eV)
#YLABEL      : Counts
#XPOSITION   : 0.33998
#YPOSITION   : 15.75693
#ZPOSITION   : 37.36299
#EDSDET      : SD
##SPECIMEN   : GMIIIA K1080[7][all]
##D2STDCMP   : K1080,(Li:2.79),(B:0.62),(O:41.65),(Mg:1.21),(Al:7.94),(Si:18.7),(Ca:10.72),(Ti:1.2),(Sr:12.68),(Zr:0.74),(Lu:1.76)
##DET_HASH   : 12273538-fd48-a23f-0a19-f1e6fa85caef
##CALIB_HASH : 6abaa72c-aa41-8738-0be9-f592914732f3
##WORKING    : 15.0 mm
##DET_NAME   : EDAX All
##DET_MODE   : MediumLE
#SPECTRUM    :
24,
295,
8498,
7703,
54485,
3752,
4203,
4787,
5387,
15676,
10160,
31507,
48507,
67466,
6311,
3980,
3412,
2825,
2784,
2717,
2545,
2569,
2470,
2441,
2221,
2520,
20534,
7889,
2638,
4510,
1816,
1678,
3830,
1696,
1478,
1629,
1467,
1292,
1221,
1265,
1163,
1120,
1055,
1039,
958,
969,
893,
937,
845,
776,
750,
715,
737,
704,
837,
890,
625,
593,
596,
554,
536,
531,
583,
488,
455,
457,
426,
395,
397,
371,
318,
307,
302,
285,
257,
256,
252,
221,
201,
205,
204,
180,
174,
157,
153,
157,
135,
130,
102,
98,
88,
68,
87,
64,
66,
62,
45,
46,
33,
45,
31,
33,
18,
20,
17,
5,
3,
1,
0,
0,
1,
0,
0,
0,
0,
0,
0,
0,
0,
0,
0,
0,
0,
0,
0,
0,
0,
0,
1,
0,
0,
0,
0,
0,
0,
0,
0,
0,
0,
0,
0,
0,
0,
0,
0,
0,
0,
0,
0,
0,
0,
0,
0,
0,
0,
0,
0,
0,
0,
0,
0,
0,
0,
0,
0,
0,
0,
0,
0,
0,
0,
0,
0,
0,
0,
0,
0,
0,
0,
0,
0,
0,
0,
0,
0,
0,
0,
0,
0,
0,
0,
0,
0,
0,
0,
0,
0,
0,
0,
0,
0,
0,
0,
0,
0,
0,
0,
0,
0,
0,
0,
0,
0,
0,
0,
0,
0,
0,
0,
0,
0,
0,
0,
0,
0,
0,
0,
0,
0,
0,
0,
0,
0,
0,
0,
0,
0,
0,
0,
0,
0,
0,
0,
0,
0,
0,
0,
0,
0,
0,
0,
0,
0,
0,
0,
0,
0,
0,
0,
0,
0,
0,
0,
0,
0,
0,
0,
0,
0,
0,
0,
0,
0,
0,
0,
0,
0,
0,
0,
0,
0,
0,
0,
0,
0,
0,
0,
0,
0,
0,
0,
0,
0,
0,
#ENDOFDATA   :

File: GMIIIA K1080[8][4].msa
#FORMAT      : EMSA/MAS Spectral Data File
#VERSION     : 1.0
#TITLE       : GMIIIA K1080[8][all]
#DATE        : 22-SEP-2025
#TIME        : 20:58
#OWNER       : Unknown
#NPOINTS     : 4096
#NCOLUMNS    : 1
#XUNITS      : eV
#YUNITS      : counts
#DATATYPE    : Y
#XPERCHAN    : 9.99778
#OFFSET      : 1.69135
#BEAMKV      : 15
#SIGNALTYPE  : EDS
#ELEVANGLE   : 35
#AZIMANGLE   : 0
#LIVETIME    : 239.942
#REALTIME    : 255.334
#PROBECUR    : 1.21822
#TAUWIND     : 0
#TDEADLYR    : 0
#TACTLYR     : 0.045
#TALWIND     : 0.025
#CHOFFSET    : 0.0
#XLABEL      : Energy (eV)
#YLABEL      : Counts
#XPOSITION   : 0.4074
#YPOSITION   : 15.72887
#ZPOSITION   : 37.36299
#EDSDET      : SD
##SPECIMEN   : GMIIIA K1080[8][all]
##D2STDCMP   : K1080,(Li:2.79),(B:0.62),(O:41.65),(Mg:1.21),(Al:7.94),(Si:18.7),(Ca:10.72),(Ti:1.2),(Sr:12.68),(Zr:0.74),(Lu:1.76)
##DET_HASH   : 12273538-fd48-a23f-0a19-f1e6fa85caef
##CALIB_HASH : 6abaa72c-aa41-8738-0be9-f592914732f3
##WORKING    : 15.0 mm
##DET_NAME   : EDAX All
##DET_MODE   : MediumLE
#SPECTRUM    :
34,
315,
8479,
7654,
54457,
3789,
4110,
4978,
5321,
15612,
9840,
31600,
48243,
67121,
6388,
4054,
3495,
2878,
2767,
2715,
2584,
2555,
2377,
2539,
2300,
2596,
20406,
7926,
2670,
4515,
1768,
1599,
3799,
1682,
1470,
1624,
1432,
1351,
1211,
1241,
1171,
1101,
995,
1012,
1012,
957,
934,
865,
817,
814,
771,
793,
749,
731,
771,
844,
619,
585,
614,
531,
551,
517,
592,
531,
445,
425,
423,
387,
379,
341,
346,
293,
308,
296,
261,
262,
232,
227,
205,
225,
172,
200,
158,
173,
168,
145,
143,
135,
103,
107,
80,
91,
88,
71,
69,
72,
46,
54,
52,
35,
27,
18,
27,
21,
16,
6,
2,
2,
0,
0,
0,
0,
0,
1,
0,
0,
0,
0,
1,
0,
0,
0,
0,
0,
0,
0,
0,
0,
0,
1,
0,
0,
0,
0,
0,
0,
0,
0,
0,
0,
0,
0,
0,
0,
0,
1,
0,
0,
0,
0,
0,
0,
0,
0,
0,
0,
0,
0,
0,
0,
0,
0,
0,
0,
0,
0,
0,
0,
0,
0,
0,
0,
0,
0,
0,
0,
0,
0,
0,
0,
0,
0,
0,
0,
0,
0,
0,
0,
0,
0,
0,
0,
0,
0,
0,
0,
0,
0,
0,
0,
0,
0,
0,
0,
0,
0,
0,
0,
0,
0,
0,
0,
0,
0,
0,
0,
0,
0,
0,
0,
0,
0,
0,
0,
0,
0,
0,
0,
0,
0,
0,
0,
0,
0,
0,
0,
0,
0,
0,
0,
0,
0,
0,
0,
0,
0,
0,
0,
0,
0,
0,
0,
0,
0,
0,
0,
0,
0,
0,
0,
0,
0,
0,
0,
0,
0,
0,
0,
0,
0,
0,
0,
0,
0,
0,
0,
0,
0,
0,
0,
0,
0,
0,
0,
0,
0,
0,
0,
0,
0,
0,
0,
0,
0,
#ENDOFDATA   :

File: GMIIIA K1132[0][4].msa
#FORMAT      : EMSA/MAS Spectral Data File
#VERSION     : 1.0
#TITLE       : GMIIIA K1132[0][all]
#DATE        : 22-SEP-2025
#TIME        : 22:22
#OWNER       : Unknown
#NPOINTS     : 4096
#NCOLUMNS    : 1
#XUNITS      : eV
#YUNITS      : counts
#DATATYPE    : Y
#XPERCHAN    : 9.99778
#OFFSET      : 1.69135
#BEAMKV      : 15
#SIGNALTYPE  : EDS
#ELEVANGLE   : 35
#AZIMANGLE   : 0
#LIVETIME    : 239.932
#REALTIME    : 255.343
#PROBECUR    : 1.21595
#TAUWIND     : 0
#TDEADLYR    : 0
#TACTLYR     : 0.045
#TALWIND     : 0.025
#CHOFFSET    : 0.0
#XLABEL      : Energy (eV)
#YLABEL      : Counts
#XPOSITION   : 8.25491
#YPOSITION   : 17.41329
#ZPOSITION   : 37.36299
#EDSDET      : SD
##SPECIMEN   : GMIIIA K1132[0][all]
##D2STDCMP   : K1132,(Li:2.32),(O:41.34),(Al:7.94),(Si:21.39),(Ca:10.72),(Cr:0.51),(Ni:1.18),(Mo:1.67),(Ba:13.43)
##DET_HASH   : 12273538-fd48-a23f-0a19-f1e6fa85caef
##CALIB_HASH : 6abaa72c-aa41-8738-0be9-f592914732f3
##WORKING    : 15.0 mm
##DET_NAME   : EDAX All
##DET_MODE   : MediumLE
#SPECTRUM    :
28,
263,
9919,
8652,
67227,
4341,
7099,
5537,
4917,
5255,
8918,
25146,
48061,
23610,
3885,
3436,
5270,
4895,
3277,
2917,
2880,
2790,
2679,
2558,
2400,
2749,
20896,
8038,
3150,
4945,
1956,
2526,
12395,
1780,
3525,
4285,
1779,
3097,
1488,
2094,
1560,
1360,
1276,
1241,
1049,
1017,
946,
958,
943,
894,
847,
820,
752,
1242,
990,
732,
660,
651,
613,
698,
597,
561,
555,
494,
478,
461,
424,
453,
420,
433,
367,
356,
327,
296,
314,
288,
265,
237,
263,
237,
254,
180,
211,
181,
165,
158,
171,
155,
134,
132,
106,
125,
86,
88,
57,
61,
58,
48,
53,
38,
49,
33,
26,
24,
17,
12,
7,
2,
3,
1,
1,
0,
0,
1,
1,
0,
0,
0,
0,
0,
1,
0,
0,
0,
0,
0,
1,
0,
0,
0,
0,
0,
0,
0,
0,
0,
0,
0,
0,
0,
0,
0,
0,
0,
0,
1,
0,
0,
0,
0,
0,
0,
0,
0,
0,
0,
0,
0,
0,
0,
0,
0,
0,
0,
0,
0,
0,
0,
0,
0,
0,
0,
0,
0,
0,
0,
0,
0,
0,
0,
0,
0,
0,
0,
0,
0,
0,
0,
0,
0,
0,
0,
0,
0,
0,
0,
0,
0,
0,
0,
0,
0,
0,
0,
0,
0,
0,
0,
0,
0,
0,
0,
0,
0,
0,
0,
0,
0,
0,
0,
0,
0,
0,
0,
0,
0,
0,
0,
0,
0,
0,
0,
0,
0,
0,
0,
0,
0,
0,
0,
0,
0,
0,
0,
0,
0,
0,
0,
0,
0,
0,
0,
0,
0,
0,
0,
0,
0,
0,
0,
0,
0,
0,
0,
0,
0,
0,
0,
0,
0,
0,
0,
0,
0,
0,
0,
0,
0,
0,
0,
0,
0,
0,
0,
0,
0,
0,
0,
0,
0,
0,
0,
0,
0,
#ENDOFDATA   :

File: GMIIIA K1132[1][4].msa
#FORMAT      : EMSA/MAS Spectral Data File
#VERSION     : 1.0
#TITLE       : GMIIIA K1132[1][all]
#DATE        : 22-SEP-2025
#TIME        : 22:24
#OWNER       : Unknown
#NPOINTS     : 4096
#NCOLUMNS    : 1
#XUNITS      : eV
#YUNITS      : counts
#DATATYPE    : Y
#XPERCHAN    : 9.99778
#OFFSET      : 1.69135
#BEAMKV      : 15
#SIGNALTYPE  : EDS
#ELEVANGLE   : 35
#AZIMANGLE   : 0
#LIVETIME    : 239.94
#REALTIME    : 255.3425
#PROBECUR    : 1.21595
#TAUWIND     : 0
#TDEADLYR    : 0
#TACTLYR     : 0.045
#TALWIND     : 0.025
#CHOFFSET    : 0.0
#XLABEL      : Energy (eV)
#YLABEL      : Counts
#XPOSITION   : 8.25846
#YPOSITION   : 17.45945
#ZPOSITION   : 37.36299
#EDSDET      : SD
##SPECIMEN   : GMIIIA K1132[1][all]
##D2STDCMP   : K1132,(Li:2.32),(O:41.34),(Al:7.94),(Si:21.39),(Ca:10.72),(Cr:0.51),(Ni:1.18),(Mo:1.67),(Ba:13.43)
##DET_HASH   : 12273538-fd48-a23f-0a19-f1e6fa85caef
##CALIB_HASH : 6abaa72c-aa41-8738-0be9-f592914732f3
##WORKING    : 15.0 mm
##DET_NAME   : EDAX All
##DET_MODE   : MediumLE
#SPECTRUM    :
25,
275,
9922,
8659,
66731,
4357,
7144,
5363,
4824,
5227,
8833,
25280,
48255,
23641,
3916,
3381,
5196,
4824,
3266,
2956,
2848,
2780,
2709,
2661,
2460,
2637,
20624,
8060,
3175,
4751,
1881,
2414,
12337,
1776,
3470,
4477,
1823,
3166,
1469,
2086,
1568,
1386,
1260,
1165,
1100,
996,
997,
970,
923,
864,
868,
749,
797,
1265,
952,
718,
648,
629,
680,
651,
564,
557,
510,
480,
449,
461,
435,
388,
427,
377,
376,
333,
320,
302,
300,
323,
266,
257,
281,
236,
219,
190,
201,
169,
172,
182,
166,
129,
138,
102,
106,
101,
90,
87,
83,
67,
65,
60,
51,
57,
35,
32,
22,
19,
12,
11,
3,
6,
0,
0,
0,
1,
1,
0,
0,
1,
0,
0,
0,
0,
0,
0,
0,
1,
0,
0,
0,
0,
0,
0,
0,
1,
0,
0,
0,
0,
0,
0,
0,
0,
0,
0,
0,
0,
0,
0,
0,
0,
0,
0,
0,
1,
0,
0,
0,
0,
0,
0,
0,
0,
0,
0,
0,
0,
0,
0,
0,
0,
0,
0,
0,
0,
0,
0,
0,
0,
0,
0,
0,
0,
0,
0,
0,
0,
0,
0,
0,
0,
0,
0,
0,
0,
0,
0,
0,
0,
0,
0,
0,
0,
0,
0,
0,
0,
0,
0,
0,
0,
0,
0,
0,
0,
0,
0,
0,
0,
0,
0,
0,
0,
0,
0,
0,
0,
0,
0,
0,
0,
0,
0,
0,
0,
0,
0,
0,
0,
0,
0,
0,
0,
0,
0,
0,
0,
0,
0,
0,
0,
0,
0,
0,
0,
0,
0,
0,
0,
0,
0,
0,
0,
0,
0,
0,
0,
0,
0,
0,
0,
0,
0,
0,
0,
0,
0,
0,
0,
0,
0,
0,
0,
0,
0,
0,
0,
0,
0,
0,
0,
0,
0,
0,
0,
0,
0,
#ENDOFDATA   :

File: GMIIIA K1132[2][4].msa
#FORMAT      : EMSA/MAS Spectral Data File
#VERSION     : 1.0
#TITLE       : GMIIIA K1132[2][all]
#DATE        : 22-SEP-2025
#TIME        : 22:25
#OWNER       : Unknown
#NPOINTS     : 4096
#NCOLUMNS    : 1
#XUNITS      : eV
#YUNITS      : counts
#DATATYPE    : Y
#XPERCHAN    : 9.99778
#OFFSET      : 1.69135
#BEAMKV      : 15
#SIGNALTYPE  : EDS
#ELEVANGLE   : 35
#AZIMANGLE   : 0
#LIVETIME    : 240.016
#REALTIME    : 255.398
#PROBECUR    : 1.21595
#TAUWIND     : 0
#TDEADLYR    : 0
#TACTLYR     : 0.045
#TALWIND     : 0.025
#CHOFFSET    : 0.0
#XLABEL      : Energy (eV)
#YLABEL      : Counts
#XPOSITION   : 8.22734
#YPOSITION   : 17.49561
#ZPOSITION   : 37.36299
#EDSDET      : SD
##SPECIMEN   : GMIIIA K1132[2][all]
##D2STDCMP   : K1132,(Li:2.32),(O:41.34),(Al:7.94),(Si:21.39),(Ca:10.72),(Cr:0.51),(Ni:1.18),(Mo:1.67),(Ba:13.43)
##DET_HASH   : 12273538-fd48-a23f-0a19-f1e6fa85caef
##CALIB_HASH : 6abaa72c-aa41-8738-0be9-f592914732f3
##WORKING    : 15.0 mm
##DET_NAME   : EDAX All
##DET_MODE   : MediumLE
#SPECTRUM    :
33,
303,
11001,
8774,
66484,
3981,
7135,
5446,
4910,
5155,
9017,
25286,
48339,
23529,
3852,
3350,
5093,
4838,
3384,
2990,
2812,
2766,
2703,
2659,
2509,
2667,
20839,
8058,
3088,
4661,
1917,
2486,
12422,
1771,
3477,
4503,
1806,
3128,
1562,
2076,
1515,
1388,
1271,
1120,
1045,
1121,
999,
901,
928,
866,
832,
814,
800,
1261,
950,
747,
665,
629,
669,
647,
564,
545,
468,
454,
491,
444,
447,
438,
409,
406,
389,
353,
348,
315,
315,
281,
245,
294,
245,
243,
201,
221,
202,
169,
186,
171,
134,
133,
116,
142,
110,
95,
93,
87,
60,
79,
77,
49,
44,
35,
37,
21,
20,
17,
14,
11,
1,
1,
0,
0,
1,
0,
1,
0,
1,
0,
1,
0,
0,
0,
0,
2,
1,
0,
1,
1,
0,
0,
1,
0,
0,
1,
0,
0,
0,
0,
0,
0,
0,
0,
0,
0,
0,
0,
0,
0,
0,
0,
0,
0,
0,
0,
0,
0,
0,
0,
0,
0,
0,
0,
0,
0,
0,
0,
0,
1,
0,
0,
0,
0,
0,
0,
0,
0,
0,
0,
0,
0,
0,
0,
0,
0,
0,
0,
0,
0,
0,
0,
0,
0,
0,
0,
0,
0,
0,
0,
0,
0,
0,
0,
0,
0,
0,
0,
0,
0,
0,
0,
0,
0,
0,
0,
0,
0,
0,
0,
0,
0,
0,
0,
0,
0,
0,
0,
0,
0,
0,
0,
0,
0,
0,
0,
0,
0,
0,
0,
0,
0,
0,
0,
0,
0,
0,
0,
0,
0,
0,
0,
0,
0,
0,
0,
0,
0,
0,
0,
0,
0,
0,
0,
0,
0,
0,
0,
0,
0,
0,
0,
0,
0,
0,
0,
0,
0,
0,
0,
0,
0,
0,
0,
0,
0,
0,
0,
0,
0,
0,
0,
0,
0,
0,
0,
0,
0,
#ENDOFDATA   :

File: GMIIIA K1132[3][4].msa
#FORMAT      : EMSA/MAS Spectral Data File
#VERSION     : 1.0
#TITLE       : GMIIIA K1132[3][all]
#DATE        : 22-SEP-2025
#TIME        : 22:26
#OWNER       : Unknown
#NPOINTS     : 4096
#NCOLUMNS    : 1
#XUNITS      : eV
#YUNITS      : counts
#DATATYPE    : Y
#XPERCHAN    : 9.99778
#OFFSET      : 1.69135
#BEAMKV      : 15
#SIGNALTYPE  : EDS
#ELEVANGLE   : 35
#AZIMANGLE   : 0
#LIVETIME    : 239.921
#REALTIME    : 255.334
#PROBECUR    : 1.21595
#TAUWIND     : 0
#TDEADLYR    : 0
#TACTLYR     : 0.045
#TALWIND     : 0.025
#CHOFFSET    : 0.0
#XLABEL      : Energy (eV)
#YLABEL      : Counts
#XPOSITION   : 8.21791
#YPOSITION   : 17.41024
#ZPOSITION   : 37.36299
#EDSDET      : SD
##SPECIMEN   : GMIIIA K1132[3][all]
##D2STDCMP   : K1132,(Li:2.32),(O:41.34),(Al:7.94),(Si:21.39),(Ca:10.72),(Cr:0.51),(Ni:1.18),(Mo:1.67),(Ba:13.43)
##DET_HASH   : 12273538-fd48-a23f-0a19-f1e6fa85caef
##CALIB_HASH : 6abaa72c-aa41-8738-0be9-f592914732f3
##WORKING    : 15.0 mm
##DET_NAME   : EDAX All
##DET_MODE   : MediumLE
#SPECTRUM    :
29,
281,
9948,
8959,
66757,
4358,
7240,
5426,
4834,
5165,
8955,
25100,
47972,
23660,
3911,
3390,
5240,
4801,
3386,
3010,
2829,
2831,
2634,
2659,
2476,
2679,
20735,
7988,
3166,
4668,
1856,
2493,
12393,
1805,
3571,
4468,
1774,
3026,
1502,
2126,
1480,
1359,
1306,
1175,
1002,
968,
1017,
948,
926,
879,
803,
733,
772,
1319,
973,
675,
614,
645,
625,
677,
574,
552,
525,
499,
467,
430,
439,
426,
414,
383,
375,
330,
335,
340,
277,
278,
268,
272,
250,
233,
219,
188,
192,
180,
153,
161,
158,
134,
146,
117,
132,
103,
98,
86,
85,
64,
56,
61,
39,
43,
44,
30,
24,
23,
18,
12,
8,
0,
0,
0,
1,
2,
0,
0,
1,
0,
0,
0,
0,
0,
0,
1,
1,
0,
0,
0,
0,
0,
0,
0,
0,
0,
0,
0,
0,
0,
0,
0,
0,
0,
0,
0,
0,
0,
0,
0,
0,
0,
0,
0,
0,
0,
0,
0,
0,
0,
0,
0,
0,
0,
0,
0,
0,
0,
0,
0,
0,
0,
0,
0,
0,
0,
0,
0,
0,
0,
0,
0,
0,
0,
0,
0,
0,
0,
0,
0,
0,
0,
0,
0,
0,
0,
0,
0,
0,
0,
0,
0,
0,
0,
0,
0,
0,
0,
0,
0,
0,
0,
0,
0,
0,
0,
0,
0,
0,
0,
0,
0,
0,
0,
0,
0,
0,
0,
0,
0,
0,
0,
0,
0,
0,
0,
0,
0,
0,
0,
0,
0,
0,
0,
0,
0,
0,
0,
0,
0,
0,
0,
0,
0,
0,
0,
0,
0,
0,
0,
0,
0,
0,
0,
0,
0,
0,
0,
0,
0,
0,
0,
0,
0,
0,
0,
0,
0,
0,
0,
0,
0,
0,
0,
0,
0,
0,
0,
0,
0,
0,
0,
0,
0,
0,
0,
0,
0,
#ENDOFDATA   :

File: GMIIIA K1132[4][4].msa
#FORMAT      : EMSA/MAS Spectral Data File
#VERSION     : 1.0
#TITLE       : GMIIIA K1132[4][all]
#DATE        : 22-SEP-2025
#TIME        : 22:27
#OWNER       : Unknown
#NPOINTS     : 4096
#NCOLUMNS    : 1
#XUNITS      : eV
#YUNITS      : counts
#DATATYPE    : Y
#XPERCHAN    : 9.99778
#OFFSET      : 1.69135
#BEAMKV      : 15
#SIGNALTYPE  : EDS
#ELEVANGLE   : 35
#AZIMANGLE   : 0
#LIVETIME    : 239.916
#REALTIME    : 255.33
#PROBECUR    : 1.21595
#TAUWIND     : 0
#TDEADLYR    : 0
#TACTLYR     : 0.045
#TALWIND     : 0.025
#CHOFFSET    : 0.0
#XLABEL      : Energy (eV)
#YLABEL      : Counts
#XPOSITION   : 8.19491
#YPOSITION   : 17.38744
#ZPOSITION   : 37.36299
#EDSDET      : SD
##SPECIMEN   : GMIIIA K1132[4][all]
##D2STDCMP   : K1132,(Li:2.32),(O:41.34),(Al:7.94),(Si:21.39),(Ca:10.72),(Cr:0.51),(Ni:1.18),(Mo:1.67),(Ba:13.43)
##DET_HASH   : 12273538-fd48-a23f-0a19-f1e6fa85caef
##CALIB_HASH : 6abaa72c-aa41-8738-0be9-f592914732f3
##WORKING    : 15.0 mm
##DET_NAME   : EDAX All
##DET_MODE   : MediumLE
#SPECTRUM    :
15,
274,
9844,
8822,
67513,
4437,
7248,
5431,
4866,
5215,
8945,
25293,
47884,
23422,
3920,
3350,
5168,
4836,
3224,
2900,
2871,
2756,
2638,
2756,
2518,
2705,
20759,
8126,
3021,
4822,
1914,
2434,
12771,
1803,
3559,
4482,
1887,
3118,
1556,
2031,
1528,
1367,
1301,
1189,
1023,
956,
1010,
973,
897,
903,
838,
794,
789,
1251,
990,
654,
697,
644,
645,
656,
612,
570,
501,
500,
454,
446,
457,
442,
443,
360,
340,
321,
344,
302,
304,
329,
254,
239,
236,
249,
251,
222,
180,
169,
187,
146,
144,
130,
118,
119,
126,
94,
97,
74,
64,
57,
58,
54,
48,
40,
45,
24,
21,
17,
21,
13,
7,
1,
1,
0,
1,
1,
1,
1,
0,
0,
0,
0,
1,
1,
0,
0,
0,
0,
1,
0,
0,
0,
0,
0,
0,
0,
0,
1,
0,
0,
0,
0,
0,
1,
0,
0,
0,
0,
0,
0,
0,
0,
0,
0,
0,
0,
0,
0,
0,
0,
0,
0,
0,
0,
0,
0,
0,
0,
0,
0,
0,
0,
0,
0,
0,
0,
0,
0,
0,
0,
0,
0,
0,
0,
0,
0,
0,
0,
0,
0,
0,
0,
0,
0,
0,
0,
0,
0,
0,
0,
0,
0,
0,
0,
0,
0,
0,
0,
0,
0,
0,
0,
0,
0,
0,
0,
0,
0,
0,
0,
0,
0,
0,
0,
0,
0,
0,
0,
0,
0,
0,
0,
0,
0,
0,
0,
0,
0,
0,
0,
0,
0,
0,
0,
0,
0,
0,
0,
0,
0,
0,
0,
0,
0,
0,
0,
0,
0,
0,
0,
0,
0,
0,
0,
0,
0,
0,
0,
0,
0,
0,
0,
0,
0,
0,
0,
0,
0,
0,
0,
0,
0,
0,
0,
0,
0,
0,
0,
0,
0,
0,
0,
0,
0,
0,
0,
0,
0,
#ENDOFDATA   :

File: GMIIIA K1132[5][4].msa
#FORMAT      : EMSA/MAS Spectral Data File
#VERSION     : 1.0
#TITLE       : GMIIIA K1132[5][all]
#DATE        : 22-SEP-2025
#TIME        : 22:28
#OWNER       : Unknown
#NPOINTS     : 4096
#NCOLUMNS    : 1
#XUNITS      : eV
#YUNITS      : counts
#DATATYPE    : Y
#XPERCHAN    : 9.99778
#OFFSET      : 1.69135
#BEAMKV      : 15
#SIGNALTYPE  : EDS
#ELEVANGLE   : 35
#AZIMANGLE   : 0
#LIVETIME    : 239.929
#REALTIME    : 255.333
#PROBECUR    : 1.21595
#TAUWIND     : 0
#TDEADLYR    : 0
#TACTLYR     : 0.045
#TALWIND     : 0.025
#CHOFFSET    : 0.0
#XLABEL      : Energy (eV)
#YLABEL      : Counts
#XPOSITION   : 8.26203
#YPOSITION   : 17.38353
#ZPOSITION   : 37.36299
#EDSDET      : SD
##SPECIMEN   : GMIIIA K1132[5][all]
##D2STDCMP   : K1132,(Li:2.32),(O:41.34),(Al:7.94),(Si:21.39),(Ca:10.72),(Cr:0.51),(Ni:1.18),(Mo:1.67),(Ba:13.43)
##DET_HASH   : 12273538-fd48-a23f-0a19-f1e6fa85caef
##CALIB_HASH : 6abaa72c-aa41-8738-0be9-f592914732f3
##WORKING    : 15.0 mm
##DET_NAME   : EDAX All
##DET_MODE   : MediumLE
#SPECTRUM    :
29,
292,
9930,
8697,
67222,
4083,
7257,
5389,
4883,
5209,
8933,
24988,
48777,
23737,
3778,
3290,
5120,
4767,
3392,
2979,
2866,
2842,
2662,
2689,
2454,
2596,
20503,
7986,
3063,
4791,
1972,
2401,
12413,
1851,
3536,
4420,
1854,
3063,
1603,
2186,
1599,
1316,
1297,
1175,
1090,
981,
962,
933,
895,
854,
829,
801,
752,
1235,
938,
714,
639,
631,
644,
672,
553,
548,
505,
498,
467,
436,
437,
413,
434,
411,
373,
344,
363,
353,
303,
314,
278,
261,
228,
228,
221,
229,
188,
197,
161,
148,
140,
139,
146,
105,
111,
113,
80,
87,
70,
75,
70,
62,
47,
47,
26,
31,
31,
27,
9,
13,
2,
1,
0,
1,
0,
0,
0,
0,
0,
0,
0,
1,
0,
0,
0,
0,
0,
0,
0,
1,
0,
0,
0,
0,
0,
1,
0,
0,
0,
0,
0,
0,
0,
1,
1,
0,
0,
0,
0,
0,
0,
0,
0,
0,
0,
0,
0,
0,
0,
0,
0,
0,
0,
0,
0,
0,
0,
0,
0,
0,
0,
0,
0,
0,
0,
0,
0,
0,
0,
0,
0,
0,
0,
0,
0,
0,
0,
0,
0,
0,
0,
0,
0,
0,
0,
0,
0,
0,
0,
0,
0,
0,
0,
0,
0,
0,
0,
0,
0,
0,
0,
0,
0,
0,
0,
0,
0,
0,
0,
0,
0,
0,
0,
0,
0,
0,
0,
0,
0,
0,
0,
0,
0,
0,
0,
0,
0,
0,
0,
0,
0,
0,
0,
0,
0,
0,
0,
0,
0,
0,
0,
0,
0,
0,
0,
0,
0,
0,
0,
0,
0,
0,
0,
0,
0,
0,
0,
0,
0,
0,
0,
0,
0,
0,
0,
0,
0,
0,
0,
0,
0,
0,
0,
0,
0,
0,
0,
0,
0,
0,
0,
0,
0,
0,
0,
0,
0,
0,
#ENDOFDATA   :

File: GMIIIA K1132[6][4].msa
#FORMAT      : EMSA/MAS Spectral Data File
#VERSION     : 1.0
#TITLE       : GMIIIA K1132[6][all]
#DATE        : 22-SEP-2025
#TIME        : 22:29
#OWNER       : Unknown
#NPOINTS     : 4096
#NCOLUMNS    : 1
#XUNITS      : eV
#YUNITS      : counts
#DATATYPE    : Y
#XPERCHAN    : 9.99778
#OFFSET      : 1.69135
#BEAMKV      : 15
#SIGNALTYPE  : EDS
#ELEVANGLE   : 35
#AZIMANGLE   : 0
#LIVETIME    : 239.979
#REALTIME    : 255.396
#PROBECUR    : 1.21595
#TAUWIND     : 0
#TDEADLYR    : 0
#TACTLYR     : 0.045
#TALWIND     : 0.025
#CHOFFSET    : 0.0
#XLABEL      : Energy (eV)
#YLABEL      : Counts
#XPOSITION   : 8.35029
#YPOSITION   : 17.44148
#ZPOSITION   : 37.36299
#EDSDET      : SD
##SPECIMEN   : GMIIIA K1132[6][all]
##D2STDCMP   : K1132,(Li:2.32),(O:41.34),(Al:7.94),(Si:21.39),(Ca:10.72),(Cr:0.51),(Ni:1.18),(Mo:1.67),(Ba:13.43)
##DET_HASH   : 12273538-fd48-a23f-0a19-f1e6fa85caef
##CALIB_HASH : 6abaa72c-aa41-8738-0be9-f592914732f3
##WORKING    : 15.0 mm
##DET_NAME   : EDAX All
##DET_MODE   : MediumLE
#SPECTRUM    :
38,
271,
9843,
8589,
67302,
4278,
7276,
5379,
4895,
5197,
8891,
25088,
48213,
23404,
3938,
3453,
5259,
4918,
3323,
2963,
2902,
2752,
2738,
2706,
2435,
2679,
20712,
8027,
3068,
4713,
1958,
2527,
12530,
1824,
3471,
4269,
1871,
3174,
1523,
2094,
1567,
1285,
1294,
1146,
1023,
1045,
1036,
956,
897,
823,
826,
835,
803,
1248,
961,
697,
649,
620,
621,
685,
591,
557,
553,
484,
444,
440,
425,
403,
399,
400,
418,
345,
353,
319,
301,
292,
281,
256,
248,
232,
227,
209,
186,
172,
150,
170,
157,
125,
157,
105,
108,
117,
89,
65,
69,
67,
60,
56,
41,
34,
40,
28,
19,
12,
16,
11,
4,
1,
3,
0,
0,
0,
0,
1,
0,
1,
0,
1,
0,
0,
0,
0,
0,
0,
0,
0,
0,
0,
0,
0,
0,
0,
0,
0,
0,
1,
0,
0,
0,
0,
0,
0,
0,
0,
0,
1,
0,
0,
0,
0,
0,
0,
0,
0,
0,
0,
0,
0,
0,
0,
0,
0,
0,
0,
0,
0,
0,
0,
0,
0,
0,
0,
0,
0,
0,
0,
0,
0,
0,
0,
0,
0,
0,
1,
0,
0,
0,
0,
0,
0,
0,
0,
0,
0,
0,
0,
0,
0,
0,
0,
0,
0,
0,
0,
0,
0,
0,
0,
0,
0,
0,
0,
0,
0,
0,
0,
0,
0,
0,
0,
0,
0,
0,
0,
0,
0,
0,
0,
0,
0,
0,
0,
0,
0,
0,
0,
0,
0,
0,
0,
0,
0,
0,
0,
0,
0,
0,
0,
0,
0,
0,
0,
0,
0,
0,
0,
0,
0,
0,
0,
0,
0,
0,
0,
0,
0,
0,
0,
0,
0,
0,
0,
0,
0,
0,
0,
0,
0,
0,
0,
0,
0,
0,
0,
0,
0,
0,
0,
0,
0,
0,
0,
0,
0,
#ENDOFDATA   :