Folder: spex_quant/N132962/Quantification/15 keV/GMIIIA (part 15)

File: GMIIIA K1234[0][4].msa
#FORMAT      : EMSA/MAS Spectral Data File
#VERSION     : 1.0
#TITLE       : GMIIIA K1234[0][all]
#DATE        : 22-SEP-2025
#TIME        : 22:53
#OWNER       : Unknown
#NPOINTS     : 4096
#NCOLUMNS    : 1
#XUNITS      : eV
#YUNITS      : counts
#DATATYPE    : Y
#XPERCHAN    : 9.99778
#OFFSET      : 1.69135
#BEAMKV      : 15
#SIGNALTYPE  : EDS
#ELEVANGLE   : 35
#AZIMANGLE   : 0
#LIVETIME    : 239.934
#REALTIME    : 255.852
#PROBECUR    : 1.21591
#TAUWIND     : 0
#TDEADLYR    : 0
#TACTLYR     : 0.045
#TALWIND     : 0.025
#CHOFFSET    : 0.0
#XLABEL      : Energy (eV)
#YLABEL      : Counts
#XPOSITION   : 2.01214
#YPOSITION   : 17.87373
#ZPOSITION   : 37.36299
#EDSDET      : SD
##SPECIMEN   : GMIIIA K1234[0][all]
##D2STDCMP   : K1234,(O:39.85),(Al:9.15),(Si:21.56),(Ca:12.36),(Ba:15.49),(W:1.59)
##DET_HASH   : 12273538-fd48-a23f-0a19-f1e6fa85caef
##CALIB_HASH : 6abaa72c-aa41-8738-0be9-f592914732f3
##WORKING    : 15.0 mm
##DET_NAME   : EDAX All
##DET_MODE   : MediumLE
#SPECTRUM    :
27,
287,
10749,
8629,
63385,
4230,
4661,
5710,
5090,
5430,
10197,
28506,
49412,
27816,
4024,
3475,
3821,
3230,
3233,
3128,
2965,
2891,
2856,
2830,
2598,
2812,
24068,
9366,
3452,
5244,
1976,
2669,
14346,
1969,
4048,
4976,
2003,
3454,
1480,
1788,
1650,
1517,
1345,
1163,
1130,
1125,
1052,
970,
990,
888,
856,
872,
832,
808,
763,
766,
719,
660,
619,
669,
851,
628,
597,
577,
550,
503,
512,
422,
486,
478,
453,
410,
344,
362,
343,
336,
316,
291,
273,
252,
213,
229,
219,
184,
213,
215,
134,
154,
133,
140,
133,
96,
115,
100,
71,
84,
81,
60,
58,
46,
51,
32,
32,
23,
12,
8,
11,
4,
1,
0,
1,
0,
0,
1,
0,
0,
2,
1,
0,
0,
0,
1,
0,
0,
0,
0,
1,
1,
0,
3,
0,
0,
0,
0,
0,
0,
0,
0,
0,
0,
0,
0,
1,
0,
0,
0,
0,
0,
0,
0,
0,
0,
0,
0,
0,
0,
0,
0,
0,
0,
0,
0,
0,
0,
0,
0,
0,
0,
0,
0,
0,
0,
0,
0,
0,
0,
0,
0,
0,
0,
0,
0,
0,
0,
0,
0,
0,
0,
0,
0,
0,
0,
0,
0,
0,
0,
0,
0,
0,
0,
0,
0,
0,
0,
0,
0,
0,
0,
0,
0,
0,
0,
0,
0,
0,
0,
0,
0,
0,
0,
0,
0,
0,
0,
0,
0,
0,
0,
0,
0,
0,
0,
0,
0,
0,
0,
0,
0,
0,
0,
0,
0,
0,
0,
0,
0,
0,
0,
0,
0,
0,
0,
0,
0,
0,
0,
0,
0,
0,
0,
0,
0,
0,
0,
0,
0,
0,
0,
0,
0,
0,
0,
0,
0,
0,
0,
0,
0,
0,
0,
0,
0,
0,
0,
0,
0,
0,
0,
0,
0,
0,
0,
0,
0,
#ENDOFDATA   :

File: GMIIIA K1234[1][4].msa
#FORMAT      : EMSA/MAS Spectral Data File
#VERSION     : 1.0
#TITLE       : GMIIIA K1234[1][all]
#DATE        : 22-SEP-2025
#TIME        : 22:55
#OWNER       : Unknown
#NPOINTS     : 4096
#NCOLUMNS    : 1
#XUNITS      : eV
#YUNITS      : counts
#DATATYPE    : Y
#XPERCHAN    : 9.99778
#OFFSET      : 1.69135
#BEAMKV      : 15
#SIGNALTYPE  : EDS
#ELEVANGLE   : 35
#AZIMANGLE   : 0
#LIVETIME    : 239.834
#REALTIME    : 255.727
#PROBECUR    : 1.21591
#TAUWIND     : 0
#TDEADLYR    : 0
#TACTLYR     : 0.045
#TALWIND     : 0.025
#CHOFFSET    : 0.0
#XLABEL      : Energy (eV)
#YLABEL      : Counts
#XPOSITION   : 2.03167
#YPOSITION   : 17.7802
#ZPOSITION   : 37.36299
#EDSDET      : SD
##SPECIMEN   : GMIIIA K1234[1][all]
##D2STDCMP   : K1234,(O:39.85),(Al:9.15),(Si:21.56),(Ca:12.36),(Ba:15.49),(W:1.59)
##DET_HASH   : 12273538-fd48-a23f-0a19-f1e6fa85caef
##CALIB_HASH : 6abaa72c-aa41-8738-0be9-f592914732f3
##WORKING    : 15.0 mm
##DET_NAME   : EDAX All
##DET_MODE   : MediumLE
#SPECTRUM    :
18,
294,
10753,
8558,
63019,
4197,
4690,
5740,
5129,
5382,
10086,
28871,
49381,
27644,
4019,
3269,
3847,
3305,
3156,
3109,
3028,
2877,
2820,
2775,
2581,
2912,
24010,
9219,
3530,
5236,
1983,
2667,
14620,
1980,
4010,
4930,
1884,
3438,
1477,
1818,
1687,
1483,
1312,
1178,
1059,
1176,
1031,
1021,
1024,
1004,
899,
901,
862,
856,
772,
715,
694,
630,
688,
627,
814,
605,
586,
536,
552,
542,
435,
457,
455,
495,
407,
424,
386,
341,
325,
315,
316,
282,
283,
245,
248,
232,
212,
195,
185,
192,
164,
154,
119,
138,
111,
121,
105,
81,
93,
82,
67,
57,
66,
46,
43,
28,
26,
28,
10,
9,
5,
2,
1,
1,
0,
0,
0,
1,
0,
0,
0,
0,
0,
0,
1,
0,
0,
2,
0,
0,
0,
0,
3,
0,
0,
1,
0,
1,
1,
0,
0,
0,
1,
0,
0,
0,
0,
0,
0,
0,
0,
0,
0,
0,
0,
0,
0,
0,
0,
0,
0,
0,
0,
0,
0,
0,
0,
1,
0,
0,
0,
0,
0,
0,
0,
0,
0,
0,
0,
0,
0,
0,
0,
0,
0,
0,
0,
0,
0,
0,
0,
0,
0,
0,
0,
0,
0,
0,
0,
0,
0,
0,
0,
0,
0,
0,
0,
0,
0,
0,
0,
0,
0,
0,
0,
0,
0,
0,
0,
0,
0,
0,
0,
0,
0,
0,
0,
0,
0,
0,
0,
0,
0,
0,
0,
0,
0,
0,
0,
0,
0,
0,
0,
0,
0,
0,
0,
0,
0,
0,
0,
0,
0,
0,
0,
0,
0,
0,
0,
0,
0,
0,
0,
0,
0,
0,
0,
0,
0,
0,
0,
0,
0,
0,
0,
0,
0,
0,
0,
0,
0,
0,
0,
0,
0,
0,
0,
0,
0,
0,
0,
0,
0,
0,
0,
0,
0,
0,
#ENDOFDATA   :

File: GMIIIA K1234[2][4].msa
#FORMAT      : EMSA/MAS Spectral Data File
#VERSION     : 1.0
#TITLE       : GMIIIA K1234[2][all]
#DATE        : 22-SEP-2025
#TIME        : 22:56
#OWNER       : Unknown
#NPOINTS     : 4096
#NCOLUMNS    : 1
#XUNITS      : eV
#YUNITS      : counts
#DATATYPE    : Y
#XPERCHAN    : 9.99778
#OFFSET      : 1.69135
#BEAMKV      : 15
#SIGNALTYPE  : EDS
#ELEVANGLE   : 35
#AZIMANGLE   : 0
#LIVETIME    : 239.987
#REALTIME    : 255.9118
#PROBECUR    : 1.21591
#TAUWIND     : 0
#TDEADLYR    : 0
#TACTLYR     : 0.045
#TALWIND     : 0.025
#CHOFFSET    : 0.0
#XLABEL      : Energy (eV)
#YLABEL      : Counts
#XPOSITION   : 1.95364
#YPOSITION   : 17.90924
#ZPOSITION   : 37.36299
#EDSDET      : SD
##SPECIMEN   : GMIIIA K1234[2][all]
##D2STDCMP   : K1234,(O:39.85),(Al:9.15),(Si:21.56),(Ca:12.36),(Ba:15.49),(W:1.59)
##DET_HASH   : 12273538-fd48-a23f-0a19-f1e6fa85caef
##CALIB_HASH : 6abaa72c-aa41-8738-0be9-f592914732f3
##WORKING    : 15.0 mm
##DET_NAME   : EDAX All
##DET_MODE   : MediumLE
#SPECTRUM    :
29,
299,
10460,
8537,
63574,
4242,
4647,
5786,
4991,
5449,
10223,
28427,
49561,
27674,
4019,
3386,
3781,
3227,
3161,
3151,
3028,
2912,
2911,
2819,
2617,
2894,
24163,
9136,
3426,
5274,
2039,
2651,
14410,
1967,
3962,
4919,
1941,
3419,
1495,
1812,
1746,
1475,
1303,
1149,
1163,
1121,
1050,
1000,
1008,
962,
964,
836,
777,
819,
751,
777,
740,
712,
661,
670,
818,
632,
567,
530,
515,
470,
489,
430,
467,
493,
441,
443,
380,
382,
333,
304,
306,
297,
283,
245,
246,
226,
236,
218,
212,
186,
180,
159,
137,
153,
115,
120,
107,
82,
74,
75,
70,
57,
49,
41,
36,
25,
39,
27,
21,
8,
6,
2,
2,
2,
0,
0,
0,
0,
1,
1,
0,
1,
0,
0,
0,
0,
0,
0,
0,
0,
0,
0,
1,
0,
0,
0,
0,
0,
0,
0,
1,
0,
0,
0,
0,
0,
0,
0,
0,
0,
0,
0,
0,
0,
0,
0,
0,
0,
0,
0,
0,
0,
0,
0,
0,
0,
0,
0,
0,
0,
0,
0,
0,
0,
0,
0,
0,
0,
0,
0,
0,
0,
0,
0,
0,
0,
0,
0,
0,
0,
0,
0,
0,
0,
0,
0,
0,
0,
0,
0,
0,
0,
0,
0,
0,
0,
0,
0,
0,
0,
0,
0,
0,
0,
0,
0,
0,
0,
0,
0,
0,
0,
0,
0,
0,
0,
0,
0,
0,
0,
0,
0,
0,
0,
0,
0,
0,
0,
0,
0,
0,
0,
0,
0,
0,
0,
0,
0,
0,
0,
0,
0,
0,
0,
0,
0,
0,
0,
0,
0,
0,
0,
0,
0,
0,
0,
0,
0,
0,
0,
0,
0,
0,
0,
0,
0,
0,
0,
0,
0,
0,
0,
0,
0,
0,
0,
0,
0,
0,
0,
0,
0,
0,
0,
0,
0,
0,
0,
#ENDOFDATA   :

File: GMIIIA K1234[3][4].msa
#FORMAT      : EMSA/MAS Spectral Data File
#VERSION     : 1.0
#TITLE       : GMIIIA K1234[3][all]
#DATE        : 22-SEP-2025
#TIME        : 22:57
#OWNER       : Unknown
#NPOINTS     : 4096
#NCOLUMNS    : 1
#XUNITS      : eV
#YUNITS      : counts
#DATATYPE    : Y
#XPERCHAN    : 9.99778
#OFFSET      : 1.69135
#BEAMKV      : 15
#SIGNALTYPE  : EDS
#ELEVANGLE   : 35
#AZIMANGLE   : 0
#LIVETIME    : 239.886
#REALTIME    : 255.787
#PROBECUR    : 1.21591
#TAUWIND     : 0
#TDEADLYR    : 0
#TACTLYR     : 0.045
#TALWIND     : 0.025
#CHOFFSET    : 0.0
#XLABEL      : Energy (eV)
#YLABEL      : Counts
#XPOSITION   : 2.01161
#YPOSITION   : 17.83916
#ZPOSITION   : 37.36299
#EDSDET      : SD
##SPECIMEN   : GMIIIA K1234[3][all]
##D2STDCMP   : K1234,(O:39.85),(Al:9.15),(Si:21.56),(Ca:12.36),(Ba:15.49),(W:1.59)
##DET_HASH   : 12273538-fd48-a23f-0a19-f1e6fa85caef
##CALIB_HASH : 6abaa72c-aa41-8738-0be9-f592914732f3
##WORKING    : 15.0 mm
##DET_NAME   : EDAX All
##DET_MODE   : MediumLE
#SPECTRUM    :
17,
281,
10707,
8451,
62863,
4329,
4653,
5695,
5186,
5531,
10164,
28135,
48773,
27647,
4042,
3440,
3816,
3321,
3070,
3131,
3147,
2936,
2842,
2823,
2592,
2772,
23832,
9158,
3505,
5399,
1983,
2725,
14444,
1874,
3910,
4928,
1983,
3597,
1461,
1789,
1674,
1500,
1373,
1226,
1093,
1119,
1072,
973,
941,
966,
919,
876,
846,
862,
798,
773,
703,
706,
669,
654,
878,
612,
563,
515,
474,
501,
494,
485,
463,
449,
440,
394,
384,
394,
318,
348,
290,
284,
284,
250,
242,
224,
231,
216,
202,
158,
185,
162,
121,
117,
113,
115,
99,
96,
97,
65,
64,
52,
56,
44,
45,
36,
30,
27,
18,
8,
6,
1,
0,
0,
0,
0,
2,
0,
1,
0,
1,
0,
0,
1,
1,
0,
0,
0,
0,
1,
0,
0,
0,
1,
0,
1,
0,
0,
0,
0,
0,
0,
0,
0,
0,
0,
0,
1,
0,
0,
0,
0,
0,
0,
0,
0,
0,
0,
0,
0,
0,
0,
0,
0,
0,
0,
0,
0,
0,
0,
0,
0,
0,
0,
0,
0,
0,
0,
0,
0,
0,
0,
0,
0,
0,
0,
0,
0,
0,
0,
0,
0,
0,
0,
0,
0,
0,
0,
0,
0,
0,
0,
0,
0,
0,
0,
0,
0,
0,
0,
0,
0,
0,
0,
0,
0,
0,
0,
0,
0,
0,
0,
0,
0,
0,
0,
0,
0,
0,
0,
0,
0,
0,
0,
0,
0,
0,
0,
0,
0,
0,
0,
0,
0,
0,
0,
0,
0,
0,
0,
0,
0,
0,
0,
0,
0,
0,
0,
0,
0,
0,
0,
0,
0,
0,
0,
0,
0,
0,
0,
0,
0,
0,
0,
0,
0,
0,
0,
0,
0,
0,
0,
0,
0,
0,
0,
0,
0,
0,
0,
0,
0,
0,
0,
0,
0,
0,
0,
#ENDOFDATA   :

File: GMIIIA K1234[4][4].msa
#FORMAT      : EMSA/MAS Spectral Data File
#VERSION     : 1.0
#TITLE       : GMIIIA K1234[4][all]
#DATE        : 22-SEP-2025
#TIME        : 22:58
#OWNER       : Unknown
#NPOINTS     : 4096
#NCOLUMNS    : 1
#XUNITS      : eV
#YUNITS      : counts
#DATATYPE    : Y
#XPERCHAN    : 9.99778
#OFFSET      : 1.69135
#BEAMKV      : 15
#SIGNALTYPE  : EDS
#ELEVANGLE   : 35
#AZIMANGLE   : 0
#LIVETIME    : 239.941
#REALTIME    : 255.85
#PROBECUR    : 1.21591
#TAUWIND     : 0
#TDEADLYR    : 0
#TACTLYR     : 0.045
#TALWIND     : 0.025
#CHOFFSET    : 0.0
#XLABEL      : Energy (eV)
#YLABEL      : Counts
#XPOSITION   : 1.94535
#YPOSITION   : 17.83799
#ZPOSITION   : 37.36299
#EDSDET      : SD
##SPECIMEN   : GMIIIA K1234[4][all]
##D2STDCMP   : K1234,(O:39.85),(Al:9.15),(Si:21.56),(Ca:12.36),(Ba:15.49),(W:1.59)
##DET_HASH   : 12273538-fd48-a23f-0a19-f1e6fa85caef
##CALIB_HASH : 6abaa72c-aa41-8738-0be9-f592914732f3
##WORKING    : 15.0 mm
##DET_NAME   : EDAX All
##DET_MODE   : MediumLE
#SPECTRUM    :
26,
302,
10526,
8764,
62779,
4346,
4717,
5736,
5091,
5440,
10032,
28346,
49753,
27546,
4136,
3392,
3684,
3289,
3204,
3137,
2995,
2880,
2744,
2842,
2592,
2825,
23909,
9146,
3585,
5474,
2003,
2703,
14289,
1918,
3970,
4952,
1874,
3474,
1411,
1680,
1703,
1472,
1349,
1196,
1097,
1049,
999,
1061,
957,
943,
925,
944,
877,
871,
803,
714,
744,
709,
681,
679,
856,
599,
564,
565,
523,
527,
474,
484,
399,
478,
398,
410,
361,
367,
309,
329,
266,
282,
267,
234,
261,
236,
191,
206,
200,
174,
177,
148,
144,
149,
119,
121,
123,
75,
70,
59,
70,
53,
62,
49,
45,
27,
27,
28,
9,
14,
8,
3,
0,
0,
0,
0,
0,
0,
1,
1,
1,
0,
0,
0,
1,
2,
0,
1,
0,
0,
0,
0,
0,
0,
0,
0,
0,
1,
0,
0,
0,
0,
1,
0,
0,
0,
0,
0,
0,
0,
0,
0,
0,
1,
0,
0,
0,
0,
0,
0,
0,
0,
0,
0,
0,
0,
0,
0,
0,
0,
0,
0,
0,
0,
0,
0,
0,
0,
0,
0,
0,
0,
0,
0,
0,
0,
0,
0,
0,
0,
0,
0,
0,
0,
0,
0,
0,
0,
0,
0,
0,
0,
0,
0,
0,
0,
0,
0,
0,
0,
0,
0,
0,
0,
0,
0,
0,
0,
0,
0,
0,
0,
0,
0,
0,
0,
0,
0,
0,
0,
0,
0,
0,
0,
0,
0,
0,
0,
0,
0,
0,
0,
0,
0,
0,
0,
0,
0,
0,
0,
0,
0,
0,
0,
0,
0,
0,
0,
0,
0,
0,
0,
0,
0,
0,
0,
0,
0,
0,
0,
0,
0,
0,
0,
0,
0,
0,
0,
0,
0,
0,
0,
0,
0,
0,
0,
0,
0,
0,
0,
0,
0,
0,
0,
0,
0,
0,
0,
#ENDOFDATA   :

File: GMIIIA K1234[5][4].msa
#FORMAT      : EMSA/MAS Spectral Data File
#VERSION     : 1.0
#TITLE       : GMIIIA K1234[5][all]
#DATE        : 22-SEP-2025
#TIME        : 22:59
#OWNER       : Unknown
#NPOINTS     : 4096
#NCOLUMNS    : 1
#XUNITS      : eV
#YUNITS      : counts
#DATATYPE    : Y
#XPERCHAN    : 9.99778
#OFFSET      : 1.69135
#BEAMKV      : 15
#SIGNALTYPE  : EDS
#ELEVANGLE   : 35
#AZIMANGLE   : 0
#LIVETIME    : 239.933
#REALTIME    : 255.8464
#PROBECUR    : 1.21591
#TAUWIND     : 0
#TDEADLYR    : 0
#TACTLYR     : 0.045
#TALWIND     : 0.025
#CHOFFSET    : 0.0
#XLABEL      : Energy (eV)
#YLABEL      : Counts
#XPOSITION   : 2.01468
#YPOSITION   : 17.84858
#ZPOSITION   : 37.36299
#EDSDET      : SD
##SPECIMEN   : GMIIIA K1234[5][all]
##D2STDCMP   : K1234,(O:39.85),(Al:9.15),(Si:21.56),(Ca:12.36),(Ba:15.49),(W:1.59)
##DET_HASH   : 12273538-fd48-a23f-0a19-f1e6fa85caef
##CALIB_HASH : 6abaa72c-aa41-8738-0be9-f592914732f3
##WORKING    : 15.0 mm
##DET_NAME   : EDAX All
##DET_MODE   : MediumLE
#SPECTRUM    :
25,
284,
10517,
8626,
63183,
4369,
4639,
5710,
5088,
5375,
10233,
28822,
49302,
27251,
3978,
3376,
3815,
3333,
3196,
3057,
2919,
2896,
2880,
2852,
2602,
2855,
23839,
9269,
3472,
5483,
2067,
2638,
14210,
1859,
3942,
5055,
1919,
3483,
1421,
1766,
1751,
1454,
1293,
1212,
1121,
1095,
1064,
1008,
941,
981,
901,
853,
830,
784,
802,
764,
723,
683,
676,
697,
829,
608,
589,
549,
513,
434,
502,
434,
469,
453,
415,
438,
373,
346,
336,
324,
298,
303,
279,
268,
248,
247,
236,
210,
183,
183,
146,
152,
175,
147,
109,
105,
106,
85,
84,
72,
68,
61,
63,
51,
39,
35,
23,
19,
23,
13,
4,
3,
2,
0,
1,
1,
0,
0,
0,
0,
0,
0,
0,
0,
0,
1,
0,
2,
0,
0,
0,
1,
0,
0,
0,
0,
0,
0,
0,
1,
0,
0,
0,
0,
0,
0,
0,
0,
0,
0,
0,
0,
0,
0,
0,
0,
0,
0,
0,
0,
0,
0,
0,
0,
0,
0,
0,
0,
0,
0,
0,
0,
0,
0,
0,
0,
0,
0,
0,
0,
0,
0,
0,
0,
0,
0,
0,
0,
0,
0,
0,
0,
0,
0,
0,
0,
0,
0,
0,
0,
0,
0,
0,
0,
0,
0,
0,
0,
0,
0,
0,
0,
0,
0,
0,
0,
0,
0,
0,
0,
0,
0,
0,
0,
0,
0,
0,
0,
0,
0,
0,
0,
0,
0,
0,
0,
0,
0,
0,
0,
0,
0,
0,
0,
0,
0,
0,
0,
0,
0,
0,
0,
0,
0,
0,
0,
0,
0,
0,
0,
0,
0,
0,
0,
0,
0,
0,
0,
0,
0,
0,
0,
0,
0,
0,
0,
0,
0,
0,
0,
0,
0,
0,
0,
0,
0,
0,
0,
0,
0,
0,
0,
0,
0,
0,
0,
0,
0,
#ENDOFDATA   :

File: GMIIIA K1234[6][4].msa
#FORMAT      : EMSA/MAS Spectral Data File
#VERSION     : 1.0
#TITLE       : GMIIIA K1234[6][all]
#DATE        : 22-SEP-2025
#TIME        : 23:00
#OWNER       : Unknown
#NPOINTS     : 4096
#NCOLUMNS    : 1
#XUNITS      : eV
#YUNITS      : counts
#DATATYPE    : Y
#XPERCHAN    : 9.99778
#OFFSET      : 1.69135
#BEAMKV      : 15
#SIGNALTYPE  : EDS
#ELEVANGLE   : 35
#AZIMANGLE   : 0
#LIVETIME    : 239.936
#REALTIME    : 255.848
#PROBECUR    : 1.21591
#TAUWIND     : 0
#TDEADLYR    : 0
#TACTLYR     : 0.045
#TALWIND     : 0.025
#CHOFFSET    : 0.0
#XLABEL      : Energy (eV)
#YLABEL      : Counts
#XPOSITION   : 2.00754
#YPOSITION   : 17.91111
#ZPOSITION   : 37.36299
#EDSDET      : SD
##SPECIMEN   : GMIIIA K1234[6][all]
##D2STDCMP   : K1234,(O:39.85),(Al:9.15),(Si:21.56),(Ca:12.36),(Ba:15.49),(W:1.59)
##DET_HASH   : 12273538-fd48-a23f-0a19-f1e6fa85caef
##CALIB_HASH : 6abaa72c-aa41-8738-0be9-f592914732f3
##WORKING    : 15.0 mm
##DET_NAME   : EDAX All
##DET_MODE   : MediumLE
#SPECTRUM    :
29,
253,
10619,
8442,
63244,
4215,
4798,
5787,
5126,
5372,
10280,
28524,
49233,
27464,
4020,
3301,
3798,
3336,
3097,
3094,
2917,
2921,
2880,
2820,
2492,
2790,
24102,
9251,
3434,
5405,
2134,
2734,
14345,
1870,
3976,
4994,
1986,
3562,
1512,
1785,
1735,
1538,
1301,
1224,
1111,
1063,
1060,
986,
1005,
968,
894,
885,
883,
829,
809,
721,
751,
703,
669,
635,
878,
609,
579,
522,
495,
485,
468,
453,
443,
471,
413,
455,
387,
371,
373,
307,
279,
287,
279,
255,
233,
224,
198,
208,
178,
142,
161,
151,
150,
133,
133,
116,
108,
100,
93,
73,
61,
64,
49,
41,
40,
30,
25,
24,
23,
6,
10,
2,
0,
0,
0,
0,
0,
0,
0,
0,
0,
0,
0,
0,
0,
0,
0,
0,
1,
0,
0,
0,
0,
0,
0,
0,
0,
0,
0,
0,
0,
0,
0,
0,
0,
0,
0,
1,
0,
0,
0,
0,
0,
0,
0,
0,
0,
0,
0,
0,
0,
0,
0,
0,
0,
0,
0,
0,
0,
0,
0,
0,
0,
0,
0,
0,
0,
0,
0,
0,
0,
0,
0,
0,
0,
0,
0,
0,
0,
0,
0,
0,
0,
0,
0,
0,
0,
0,
0,
0,
0,
0,
0,
0,
0,
0,
0,
0,
0,
0,
0,
0,
0,
0,
0,
0,
0,
0,
0,
0,
0,
0,
0,
0,
0,
0,
0,
0,
0,
0,
0,
0,
0,
0,
0,
0,
0,
0,
0,
0,
0,
0,
0,
0,
0,
0,
0,
0,
0,
0,
0,
0,
0,
0,
0,
0,
0,
0,
0,
0,
0,
0,
0,
0,
0,
0,
0,
0,
0,
0,
0,
0,
0,
0,
0,
0,
0,
0,
0,
0,
0,
0,
0,
0,
0,
0,
0,
0,
0,
0,
0,
0,
0,
0,
0,
0,
0,
0,
#ENDOFDATA   :

File: GMIIIA K1234[7][4].msa
#FORMAT      : EMSA/MAS Spectral Data File
#VERSION     : 1.0
#TITLE       : GMIIIA K1234[7][all]
#DATE        : 22-SEP-2025
#TIME        : 23:01
#OWNER       : Unknown
#NPOINTS     : 4096
#NCOLUMNS    : 1
#XUNITS      : eV
#YUNITS      : counts
#DATATYPE    : Y
#XPERCHAN    : 9.99778
#OFFSET      : 1.69135
#BEAMKV      : 15
#SIGNALTYPE  : EDS
#ELEVANGLE   : 35
#AZIMANGLE   : 0
#LIVETIME    : 239.941
#REALTIME    : 255.858
#PROBECUR    : 1.21591
#TAUWIND     : 0
#TDEADLYR    : 0
#TACTLYR     : 0.045
#TALWIND     : 0.025
#CHOFFSET    : 0.0
#XLABEL      : Energy (eV)
#YLABEL      : Counts
#XPOSITION   : 1.98265
#YPOSITION   : 17.86984
#ZPOSITION   : 37.36299
#EDSDET      : SD
##SPECIMEN   : GMIIIA K1234[7][all]
##D2STDCMP   : K1234,(O:39.85),(Al:9.15),(Si:21.56),(Ca:12.36),(Ba:15.49),(W:1.59)
##DET_HASH   : 12273538-fd48-a23f-0a19-f1e6fa85caef
##CALIB_HASH : 6abaa72c-aa41-8738-0be9-f592914732f3
##WORKING    : 15.0 mm
##DET_NAME   : EDAX All
##DET_MODE   : MediumLE
#SPECTRUM    :
32,
300,
10625,
8739,
62990,
4307,
4585,
5821,
5092,
5294,
10026,
28673,
48832,
27598,
3959,
3373,
3844,
3295,
3168,
3124,
3033,
2951,
2792,
2902,
2647,
2805,
24556,
9295,
3355,
5373,
1958,
2686,
14426,
1920,
3994,
4925,
1899,
3518,
1518,
1802,
1775,
1418,
1354,
1262,
1086,
1084,
1071,
988,
993,
916,
920,
844,
786,
856,
784,
708,
676,
675,
654,
714,
787,
618,
556,
573,
575,
528,
496,
477,
487,
433,
438,
432,
404,
407,
325,
308,
316,
306,
276,
238,
241,
273,
207,
203,
176,
209,
163,
129,
141,
124,
113,
117,
103,
96,
82,
64,
70,
53,
52,
41,
43,
31,
33,
12,
13,
13,
4,
2,
0,
1,
2,
0,
0,
1,
0,
1,
1,
1,
1,
0,
0,
2,
0,
0,
1,
0,
0,
0,
0,
1,
0,
0,
0,
0,
0,
0,
0,
0,
0,
0,
0,
0,
1,
0,
0,
0,
0,
0,
0,
0,
0,
0,
0,
0,
1,
0,
0,
0,
0,
0,
0,
0,
0,
0,
0,
0,
0,
0,
0,
0,
0,
0,
0,
0,
0,
0,
0,
0,
0,
0,
0,
0,
0,
0,
0,
0,
0,
0,
0,
0,
0,
0,
0,
0,
0,
0,
0,
0,
0,
0,
0,
0,
0,
0,
0,
0,
0,
0,
0,
0,
0,
0,
0,
0,
0,
0,
0,
0,
0,
0,
0,
0,
0,
0,
0,
0,
0,
0,
0,
0,
0,
0,
0,
0,
0,
0,
0,
0,
0,
0,
0,
0,
0,
0,
0,
0,
0,
0,
0,
0,
0,
0,
0,
0,
0,
0,
0,
0,
0,
0,
0,
0,
0,
0,
0,
0,
0,
0,
0,
0,
0,
0,
0,
0,
0,
0,
0,
0,
0,
0,
0,
0,
0,
0,
0,
0,
0,
0,
0,
0,
0,
0,
0,
0,
#ENDOFDATA   :

File: GMIIIA K1234[8][4].msa
#FORMAT      : EMSA/MAS Spectral Data File
#VERSION     : 1.0
#TITLE       : GMIIIA K1234[8][all]
#DATE        : 22-SEP-2025
#TIME        : 23:03
#OWNER       : Unknown
#NPOINTS     : 4096
#NCOLUMNS    : 1
#XUNITS      : eV
#YUNITS      : counts
#DATATYPE    : Y
#XPERCHAN    : 9.99778
#OFFSET      : 1.69135
#BEAMKV      : 15
#SIGNALTYPE  : EDS
#ELEVANGLE   : 35
#AZIMANGLE   : 0
#LIVETIME    : 239.892
#REALTIME    : 255.791
#PROBECUR    : 1.21388
#TAUWIND     : 0
#TDEADLYR    : 0
#TACTLYR     : 0.045
#TALWIND     : 0.025
#CHOFFSET    : 0.0
#XLABEL      : Energy (eV)
#YLABEL      : Counts
#XPOSITION   : 2.02304
#YPOSITION   : 17.85758
#ZPOSITION   : 37.36299
#EDSDET      : SD
##SPECIMEN   : GMIIIA K1234[8][all]
##D2STDCMP   : K1234,(O:39.85),(Al:9.15),(Si:21.56),(Ca:12.36),(Ba:15.49),(W:1.59)
##DET_HASH   : 12273538-fd48-a23f-0a19-f1e6fa85caef
##CALIB_HASH : 6abaa72c-aa41-8738-0be9-f592914732f3
##WORKING    : 15.0 mm
##DET_NAME   : EDAX All
##DET_MODE   : MediumLE
#SPECTRUM    :
15,
256,
10514,
8389,
63066,
4301,
4746,
5616,
5040,
5587,
10070,
28493,
49285,
27615,
4038,
3388,
3792,
3241,
3192,
3122,
3025,
2935,
2863,
2840,
2554,
2905,
23913,
9365,
3480,
5472,
2072,
2698,
14291,
1889,
3966,
4970,
1967,
3442,
1462,
1833,
1674,
1518,
1333,
1141,
1136,
1082,
1121,
1019,
972,
974,
915,
846,
823,
840,
807,
751,
734,
672,
653,
695,
810,
614,
650,
553,
480,
502,
509,
445,
468,
483,
432,
460,
393,
350,
289,
271,
310,
272,
277,
262,
237,
237,
208,
199,
196,
166,
139,
150,
158,
131,
118,
118,
108,
97,
86,
76,
72,
65,
54,
46,
35,
28,
32,
22,
24,
17,
9,
3,
2,
0,
0,
0,
0,
0,
0,
1,
1,
1,
0,
1,
1,
0,
0,
0,
1,
0,
0,
1,
0,
0,
0,
0,
0,
0,
1,
0,
0,
0,
0,
0,
0,
0,
0,
0,
0,
1,
0,
0,
0,
0,
0,
0,
0,
0,
0,
0,
0,
0,
0,
0,
0,
1,
0,
0,
0,
0,
0,
0,
0,
0,
0,
0,
0,
0,
0,
0,
0,
0,
0,
0,
0,
0,
0,
0,
0,
0,
0,
0,
0,
0,
0,
0,
0,
0,
0,
0,
0,
0,
0,
0,
0,
0,
0,
0,
0,
0,
0,
0,
0,
0,
0,
0,
0,
0,
0,
0,
0,
0,
0,
0,
0,
0,
0,
0,
0,
0,
0,
0,
0,
0,
0,
0,
0,
0,
0,
0,
0,
0,
0,
0,
0,
0,
0,
0,
0,
0,
0,
0,
0,
0,
0,
0,
0,
0,
0,
0,
0,
0,
0,
0,
0,
0,
0,
0,
0,
0,
0,
0,
0,
0,
0,
0,
0,
0,
0,
0,
0,
0,
0,
0,
0,
0,
0,
0,
0,
0,
0,
0,
0,
0,
0,
0,
0,
0,
#ENDOFDATA   :

File: GMIIIA K1235[0][4].msa
#FORMAT      : EMSA/MAS Spectral Data File
#VERSION     : 1.0
#TITLE       : GMIIIA K1235[0][all]
#DATE        : 22-SEP-2025
#TIME        : 23:14
#OWNER       : Unknown
#NPOINTS     : 4096
#NCOLUMNS    : 1
#XUNITS      : eV
#YUNITS      : counts
#DATATYPE    : Y
#XPERCHAN    : 9.99778
#OFFSET      : 1.69135
#BEAMKV      : 15
#SIGNALTYPE  : EDS
#ELEVANGLE   : 35
#AZIMANGLE   : 0
#LIVETIME    : 240.062
#REALTIME    : 255.9718
#PROBECUR    : 1.21388
#TAUWIND     : 0
#TDEADLYR    : 0
#TACTLYR     : 0.045
#TALWIND     : 0.025
#CHOFFSET    : 0.0
#XLABEL      : Energy (eV)
#YLABEL      : Counts
#XPOSITION   : 9.24282
#YPOSITION   : 18.96644
#ZPOSITION   : 37.36299
#EDSDET      : SD
##SPECIMEN   : GMIIIA K1235[0][all]
##D2STDCMP   : K1235,(O:39.17),(Al:8.86),(Si:21.16),(Ca:12.15),(Pd:1.74),(Ba:15.23),(Hf:1.7)
##DET_HASH   : 12273538-fd48-a23f-0a19-f1e6fa85caef
##CALIB_HASH : 6abaa72c-aa41-8738-0be9-f592914732f3
##WORKING    : 15.0 mm
##DET_NAME   : EDAX All
##DET_MODE   : MediumLE
#SPECTRUM    :
25,
259,
10653,
8664,
64091,
4164,
4778,
5787,
5184,
5575,
9754,
28406,
53249,
24308,
3961,
3465,
3912,
3317,
3252,
3228,
3053,
2864,
2822,
2838,
2598,
2838,
23888,
9052,
3492,
5265,
2018,
2668,
14623,
1947,
4070,
5104,
2001,
3509,
1511,
1698,
1703,
1496,
1450,
1185,
1124,
1093,
1139,
1020,
965,
930,
926,
863,
809,
841,
758,
769,
909,
780,
695,
683,
590,
573,
625,
559,
579,
532,
501,
491,
433,
410,
425,
379,
334,
378,
330,
332,
278,
291,
295,
261,
212,
251,
218,
187,
185,
168,
162,
142,
148,
127,
114,
102,
136,
92,
75,
86,
58,
76,
60,
54,
37,
35,
33,
23,
13,
14,
5,
3,
0,
0,
1,
0,
0,
1,
1,
1,
1,
0,
0,
0,
0,
2,
0,
0,
0,
0,
0,
0,
1,
0,
0,
0,
0,
0,
0,
0,
0,
0,
0,
0,
0,
0,
0,
0,
0,
0,
0,
0,
0,
0,
0,
0,
0,
0,
0,
0,
0,
0,
0,
0,
0,
0,
0,
0,
0,
0,
0,
0,
0,
0,
0,
0,
0,
0,
0,
0,
0,
0,
0,
0,
0,
0,
0,
0,
0,
0,
0,
0,
0,
0,
0,
0,
0,
0,
0,
0,
0,
0,
0,
0,
0,
0,
0,
0,
0,
0,
0,
0,
0,
0,
0,
0,
0,
0,
0,
0,
0,
0,
0,
0,
0,
0,
0,
0,
0,
0,
0,
0,
0,
0,
0,
0,
0,
0,
0,
0,
0,
0,
0,
0,
0,
0,
0,
0,
0,
0,
0,
0,
0,
0,
0,
0,
0,
0,
0,
0,
0,
0,
0,
0,
0,
0,
0,
0,
0,
0,
0,
0,
0,
0,
0,
0,
0,
0,
0,
0,
0,
0,
0,
0,
0,
0,
0,
0,
0,
0,
0,
0,
0,
0,
0,
0,
0,
0,
#ENDOFDATA   :

File: GMIIIA K1235[1][4].msa
#FORMAT      : EMSA/MAS Spectral Data File
#VERSION     : 1.0
#TITLE       : GMIIIA K1235[1][all]
#DATE        : 22-SEP-2025
#TIME        : 23:15
#OWNER       : Unknown
#NPOINTS     : 4096
#NCOLUMNS    : 1
#XUNITS      : eV
#YUNITS      : counts
#DATATYPE    : Y
#XPERCHAN    : 9.99778
#OFFSET      : 1.69135
#BEAMKV      : 15
#SIGNALTYPE  : EDS
#ELEVANGLE   : 35
#AZIMANGLE   : 0
#LIVETIME    : 239.996
#REALTIME    : 255.855
#PROBECUR    : 1.21388
#TAUWIND     : 0
#TDEADLYR    : 0
#TACTLYR     : 0.045
#TALWIND     : 0.025
#CHOFFSET    : 0.0
#XLABEL      : Energy (eV)
#YLABEL      : Counts
#XPOSITION   : 9.26184
#YPOSITION   : 19.00976
#ZPOSITION   : 37.36299
#EDSDET      : SD
##SPECIMEN   : GMIIIA K1235[1][all]
##D2STDCMP   : K1235,(O:39.17),(Al:8.86),(Si:21.16),(Ca:12.15),(Pd:1.74),(Ba:15.23),(Hf:1.7)
##DET_HASH   : 12273538-fd48-a23f-0a19-f1e6fa85caef
##CALIB_HASH : 6abaa72c-aa41-8738-0be9-f592914732f3
##WORKING    : 15.0 mm
##DET_NAME   : EDAX All
##DET_MODE   : MediumLE
#SPECTRUM    :
18,
263,
14487,
8343,
61971,
4230,
4718,
5810,
5118,
5859,
9643,
28030,
52824,
24353,
4013,
3483,
3695,
3140,
3208,
3153,
3006,
2870,
2850,
2840,
2658,
2751,
23541,
9115,
3434,
5262,
2024,
2634,
14206,
1971,
3954,
5002,
1948,
3470,
1449,
1732,
1740,
1463,
1377,
1198,
1148,
1086,
1090,
900,
954,
945,
929,
849,
867,
778,
775,
756,
911,
801,
644,
684,
598,
636,
529,
538,
572,
600,
494,
491,
436,
443,
409,
411,
346,
344,
325,
331,
287,
291,
263,
270,
225,
251,
225,
207,
198,
156,
168,
159,
148,
108,
108,
133,
80,
93,
84,
82,
44,
46,
55,
47,
51,
30,
17,
18,
9,
12,
6,
3,
2,
1,
0,
0,
0,
0,
1,
0,
0,
0,
0,
0,
0,
2,
1,
1,
1,
0,
0,
1,
0,
0,
0,
0,
0,
0,
0,
0,
0,
0,
0,
0,
0,
0,
0,
0,
0,
0,
0,
0,
0,
0,
0,
0,
0,
0,
0,
0,
0,
0,
0,
0,
0,
0,
0,
0,
0,
0,
0,
0,
0,
0,
0,
0,
0,
0,
0,
0,
0,
0,
0,
0,
0,
0,
0,
0,
0,
0,
0,
0,
0,
0,
0,
0,
0,
0,
0,
0,
0,
0,
0,
0,
0,
0,
0,
0,
0,
0,
0,
0,
0,
0,
0,
0,
0,
0,
0,
0,
0,
0,
0,
0,
0,
0,
0,
0,
0,
0,
0,
0,
0,
0,
0,
0,
0,
0,
0,
0,
0,
0,
0,
0,
0,
0,
0,
0,
0,
0,
0,
0,
0,
0,
0,
0,
0,
0,
0,
0,
0,
0,
0,
0,
0,
0,
0,
0,
0,
0,
0,
0,
0,
0,
0,
0,
0,
0,
0,
0,
0,
0,
0,
0,
0,
0,
0,
0,
0,
0,
0,
0,
0,
0,
0,
0,
0,
0,
#ENDOFDATA   :