Folder: spex_quant/N132962/Quantification/15 keV/GMIIIA (part 7)

File: GMIIIA K326[3][4].msa
#FORMAT      : EMSA/MAS Spectral Data File
#VERSION     : 1.0
#TITLE       : GMIIIA K326[3][all]
#DATE        : 22-SEP-2025
#TIME        : 15:31
#OWNER       : Unknown
#NPOINTS     : 4096
#NCOLUMNS    : 1
#XUNITS      : eV
#YUNITS      : counts
#DATATYPE    : Y
#XPERCHAN    : 9.99778
#OFFSET      : 1.69135
#BEAMKV      : 15
#SIGNALTYPE  : EDS
#ELEVANGLE   : 35
#AZIMANGLE   : 0
#LIVETIME    : 239.9607
#REALTIME    : 254.574
#PROBECUR    : 1.21681
#TAUWIND     : 0
#TDEADLYR    : 0
#TACTLYR     : 0.045
#TALWIND     : 0.025
#CHOFFSET    : 0.0
#XLABEL      : Energy (eV)
#YLABEL      : Counts
#XPOSITION   : 10.63021
#YPOSITION   : 3.77854
#ZPOSITION   : 37.36299
#EDSDET      : SD
##SPECIMEN   : GMIIIA K326[3][all]
##D2STDCMP   : K326,(B:9.32),(O:51.35),(Na:1.48),(Mg:18.15),(Si:13.98),(Ca:5.72)
##DET_HASH   : 12273538-fd48-a23f-0a19-f1e6fa85caef
##CALIB_HASH : 6abaa72c-aa41-8738-0be9-f592914732f3
##WORKING    : 15.0 mm
##DET_NAME   : EDAX All
##DET_MODE   : MediumLE
#SPECTRUM    :
31,
487,
6410,
9973,
91482,
3043,
3218,
6359,
5790,
144626,
3547,
3932,
33422,
16514,
2693,
2372,
2676,
2229,
2274,
2029,
1982,
1948,
1852,
1709,
1657,
1658,
11315,
4446,
1724,
2737,
1319,
1132,
1120,
1039,
1002,
948,
879,
871,
814,
818,
756,
720,
671,
671,
639,
648,
594,
582,
560,
487,
494,
484,
424,
412,
404,
452,
378,
339,
389,
341,
316,
293,
310,
296,
274,
287,
263,
216,
261,
215,
214,
192,
200,
175,
182,
158,
146,
116,
133,
115,
125,
102,
102,
91,
74,
90,
73,
79,
70,
59,
58,
53,
58,
42,
29,
34,
27,
28,
24,
20,
14,
16,
10,
10,
6,
2,
3,
1,
0,
0,
0,
0,
0,
0,
0,
0,
0,
0,
0,
0,
0,
0,
0,
0,
0,
0,
0,
0,
0,
0,
0,
0,
0,
0,
0,
0,
0,
0,
0,
0,
0,
0,
0,
0,
0,
0,
0,
0,
0,
0,
0,
0,
0,
0,
0,
0,
0,
0,
0,
0,
0,
0,
0,
0,
0,
0,
0,
0,
0,
0,
0,
0,
0,
0,
0,
0,
0,
0,
0,
0,
0,
0,
0,
0,
0,
0,
0,
0,
0,
0,
0,
0,
0,
0,
0,
0,
0,
0,
0,
0,
0,
0,
0,
0,
0,
0,
0,
0,
0,
0,
0,
0,
0,
0,
0,
0,
0,
0,
0,
0,
0,
0,
0,
0,
0,
0,
0,
0,
0,
0,
0,
0,
0,
0,
0,
0,
0,
0,
0,
0,
0,
0,
0,
0,
0,
0,
0,
0,
0,
0,
0,
0,
0,
0,
0,
0,
0,
0,
0,
0,
0,
0,
0,
0,
0,
0,
0,
0,
0,
0,
0,
0,
0,
0,
0,
0,
0,
0,
0,
0,
0,
0,
0,
0,
0,
0,
0,
0,
0,
0,
0,
0,
0,
0,
#ENDOFDATA   :

File: GMIIIA K326[4][4].msa
#FORMAT      : EMSA/MAS Spectral Data File
#VERSION     : 1.0
#TITLE       : GMIIIA K326[4][all]
#DATE        : 22-SEP-2025
#TIME        : 15:32
#OWNER       : Unknown
#NPOINTS     : 4096
#NCOLUMNS    : 1
#XUNITS      : eV
#YUNITS      : counts
#DATATYPE    : Y
#XPERCHAN    : 9.99778
#OFFSET      : 1.69135
#BEAMKV      : 15
#SIGNALTYPE  : EDS
#ELEVANGLE   : 35
#AZIMANGLE   : 0
#LIVETIME    : 239.94
#REALTIME    : 254.572
#PROBECUR    : 1.21681
#TAUWIND     : 0
#TDEADLYR    : 0
#TACTLYR     : 0.045
#TALWIND     : 0.025
#CHOFFSET    : 0.0
#XLABEL      : Energy (eV)
#YLABEL      : Counts
#XPOSITION   : 10.54883
#YPOSITION   : 3.75949
#ZPOSITION   : 37.36299
#EDSDET      : SD
##SPECIMEN   : GMIIIA K326[4][all]
##D2STDCMP   : K326,(B:9.32),(O:51.35),(Na:1.48),(Mg:18.15),(Si:13.98),(Ca:5.72)
##DET_HASH   : 12273538-fd48-a23f-0a19-f1e6fa85caef
##CALIB_HASH : 6abaa72c-aa41-8738-0be9-f592914732f3
##WORKING    : 15.0 mm
##DET_NAME   : EDAX All
##DET_MODE   : MediumLE
#SPECTRUM    :
18,
494,
6618,
10154,
92350,
3621,
3121,
6394,
5663,
144328,
3485,
3910,
33336,
16649,
2691,
2377,
2738,
2228,
2234,
2052,
1961,
1982,
1805,
1743,
1688,
1672,
11488,
4611,
1759,
2748,
1211,
1093,
1127,
990,
964,
1050,
883,
850,
859,
852,
704,
727,
714,
635,
652,
659,
589,
584,
567,
526,
503,
486,
521,
416,
419,
390,
391,
344,
346,
328,
292,
306,
294,
254,
278,
276,
280,
237,
214,
219,
222,
209,
185,
155,
174,
169,
130,
139,
139,
129,
117,
101,
97,
89,
91,
74,
85,
76,
69,
57,
50,
51,
53,
37,
46,
32,
41,
32,
22,
25,
20,
17,
10,
16,
6,
8,
2,
1,
0,
1,
0,
0,
0,
0,
0,
0,
1,
0,
0,
0,
0,
0,
0,
0,
0,
0,
0,
0,
0,
0,
0,
0,
0,
0,
0,
0,
0,
0,
0,
0,
0,
0,
0,
0,
0,
0,
0,
0,
0,
0,
0,
0,
0,
0,
1,
0,
0,
0,
0,
0,
0,
0,
0,
0,
0,
0,
0,
0,
0,
0,
0,
0,
0,
0,
0,
0,
0,
0,
0,
0,
0,
0,
0,
0,
0,
0,
0,
0,
0,
0,
0,
0,
0,
0,
0,
0,
0,
0,
0,
0,
0,
0,
0,
0,
0,
0,
0,
0,
0,
0,
0,
0,
0,
0,
0,
0,
0,
0,
0,
0,
0,
0,
0,
0,
0,
0,
0,
0,
0,
0,
0,
0,
0,
0,
0,
0,
0,
0,
0,
0,
0,
0,
0,
0,
0,
0,
0,
0,
0,
0,
0,
0,
0,
0,
0,
0,
0,
0,
0,
0,
0,
0,
0,
0,
0,
0,
0,
0,
0,
0,
0,
0,
0,
0,
0,
0,
0,
0,
0,
0,
0,
0,
0,
0,
0,
0,
0,
0,
0,
0,
0,
0,
0,
0,
#ENDOFDATA   :

File: GMIIIA K326[5][4].msa
#FORMAT      : EMSA/MAS Spectral Data File
#VERSION     : 1.0
#TITLE       : GMIIIA K326[5][all]
#DATE        : 22-SEP-2025
#TIME        : 15:34
#OWNER       : Unknown
#NPOINTS     : 4096
#NCOLUMNS    : 1
#XUNITS      : eV
#YUNITS      : counts
#DATATYPE    : Y
#XPERCHAN    : 9.99778
#OFFSET      : 1.69135
#BEAMKV      : 15
#SIGNALTYPE  : EDS
#ELEVANGLE   : 35
#AZIMANGLE   : 0
#LIVETIME    : 239.9365
#REALTIME    : 254.575
#PROBECUR    : 1.21681
#TAUWIND     : 0
#TDEADLYR    : 0
#TACTLYR     : 0.045
#TALWIND     : 0.025
#CHOFFSET    : 0.0
#XLABEL      : Energy (eV)
#YLABEL      : Counts
#XPOSITION   : 10.57122
#YPOSITION   : 3.76321
#ZPOSITION   : 37.36299
#EDSDET      : SD
##SPECIMEN   : GMIIIA K326[5][all]
##D2STDCMP   : K326,(B:9.32),(O:51.35),(Na:1.48),(Mg:18.15),(Si:13.98),(Ca:5.72)
##DET_HASH   : 12273538-fd48-a23f-0a19-f1e6fa85caef
##CALIB_HASH : 6abaa72c-aa41-8738-0be9-f592914732f3
##WORKING    : 15.0 mm
##DET_NAME   : EDAX All
##DET_MODE   : MediumLE
#SPECTRUM    :
30,
580,
6624,
10086,
92259,
3559,
3153,
6237,
5622,
144592,
3582,
3949,
33225,
16520,
2551,
2423,
2747,
2309,
2205,
1993,
2015,
2028,
1825,
1724,
1603,
1728,
11257,
4570,
1830,
2771,
1254,
1149,
1154,
1000,
1010,
941,
919,
900,
936,
830,
795,
737,
709,
692,
624,
579,
600,
567,
552,
531,
503,
482,
473,
491,
416,
380,
397,
388,
330,
337,
330,
321,
293,
265,
253,
243,
249,
257,
215,
224,
222,
210,
209,
165,
155,
157,
132,
154,
145,
129,
113,
110,
95,
84,
83,
96,
80,
62,
62,
62,
68,
54,
48,
26,
43,
35,
35,
32,
35,
18,
17,
14,
15,
10,
10,
3,
2,
1,
1,
0,
0,
0,
0,
0,
0,
0,
0,
0,
0,
0,
0,
0,
0,
0,
0,
0,
0,
0,
0,
0,
0,
0,
1,
0,
0,
0,
0,
0,
0,
0,
0,
0,
0,
0,
0,
0,
0,
0,
0,
0,
0,
0,
0,
0,
0,
0,
0,
0,
0,
0,
0,
0,
0,
0,
0,
0,
0,
0,
0,
0,
0,
0,
0,
0,
0,
0,
0,
0,
0,
0,
0,
0,
0,
0,
0,
0,
0,
0,
0,
0,
0,
0,
0,
0,
0,
0,
0,
0,
0,
0,
0,
0,
0,
0,
0,
0,
0,
0,
0,
0,
0,
0,
0,
0,
0,
0,
0,
0,
0,
0,
0,
0,
0,
0,
0,
0,
0,
0,
0,
0,
0,
0,
0,
0,
0,
0,
0,
0,
0,
0,
0,
0,
0,
0,
0,
0,
0,
0,
0,
0,
0,
0,
0,
0,
0,
0,
0,
0,
0,
0,
0,
0,
0,
0,
0,
0,
0,
0,
0,
0,
0,
0,
0,
0,
0,
0,
0,
0,
0,
0,
0,
0,
0,
0,
0,
0,
0,
0,
0,
0,
0,
0,
0,
0,
#ENDOFDATA   :

File: GMIIIA K326[6][4].msa
#FORMAT      : EMSA/MAS Spectral Data File
#VERSION     : 1.0
#TITLE       : GMIIIA K326[6][all]
#DATE        : 22-SEP-2025
#TIME        : 15:35
#OWNER       : Unknown
#NPOINTS     : 4096
#NCOLUMNS    : 1
#XUNITS      : eV
#YUNITS      : counts
#DATATYPE    : Y
#XPERCHAN    : 9.99778
#OFFSET      : 1.69135
#BEAMKV      : 15
#SIGNALTYPE  : EDS
#ELEVANGLE   : 35
#AZIMANGLE   : 0
#LIVETIME    : 239.871
#REALTIME    : 254.444
#PROBECUR    : 1.21681
#TAUWIND     : 0
#TDEADLYR    : 0
#TACTLYR     : 0.045
#TALWIND     : 0.025
#CHOFFSET    : 0.0
#XLABEL      : Energy (eV)
#YLABEL      : Counts
#XPOSITION   : 10.65357
#YPOSITION   : 3.75143
#ZPOSITION   : 37.36299
#EDSDET      : SD
##SPECIMEN   : GMIIIA K326[6][all]
##D2STDCMP   : K326,(B:9.32),(O:51.35),(Na:1.48),(Mg:18.15),(Si:13.98),(Ca:5.72)
##DET_HASH   : 12273538-fd48-a23f-0a19-f1e6fa85caef
##CALIB_HASH : 6abaa72c-aa41-8738-0be9-f592914732f3
##WORKING    : 15.0 mm
##DET_NAME   : EDAX All
##DET_MODE   : MediumLE
#SPECTRUM    :
21,
506,
6822,
9965,
91139,
4646,
3179,
6321,
5729,
142841,
3580,
3900,
33402,
16627,
2650,
2405,
2809,
2231,
2195,
2007,
2033,
1915,
1818,
1722,
1595,
1721,
11365,
4591,
1832,
2676,
1231,
1135,
1098,
1047,
983,
1009,
858,
884,
853,
824,
709,
696,
724,
688,
661,
611,
637,
608,
544,
489,
482,
517,
449,
455,
408,
379,
392,
344,
367,
311,
300,
314,
324,
268,
270,
246,
231,
218,
221,
242,
173,
179,
188,
167,
183,
165,
137,
144,
138,
109,
121,
114,
99,
99,
88,
83,
80,
59,
64,
69,
60,
49,
42,
45,
37,
36,
32,
26,
12,
21,
17,
13,
16,
11,
4,
9,
2,
2,
1,
1,
0,
1,
0,
0,
0,
0,
0,
0,
0,
0,
0,
0,
0,
0,
0,
0,
0,
0,
0,
0,
0,
0,
0,
0,
0,
0,
0,
0,
0,
0,
0,
0,
0,
0,
0,
0,
0,
0,
0,
0,
0,
0,
0,
0,
0,
0,
0,
0,
0,
0,
0,
0,
0,
0,
0,
0,
0,
0,
0,
0,
0,
0,
0,
0,
0,
0,
0,
0,
0,
0,
0,
0,
0,
0,
0,
0,
0,
0,
0,
0,
0,
0,
0,
0,
0,
0,
0,
0,
0,
0,
0,
0,
0,
0,
0,
0,
0,
0,
0,
0,
0,
0,
0,
0,
0,
0,
0,
0,
0,
0,
0,
0,
0,
0,
0,
0,
0,
0,
0,
0,
0,
0,
0,
0,
0,
0,
0,
0,
0,
0,
0,
0,
0,
0,
0,
0,
0,
0,
0,
0,
0,
0,
0,
0,
0,
0,
0,
0,
0,
0,
0,
0,
0,
0,
0,
0,
0,
0,
0,
0,
0,
0,
0,
0,
0,
0,
0,
0,
0,
0,
0,
0,
0,
0,
0,
0,
0,
0,
0,
0,
0,
0,
0,
0,
#ENDOFDATA   :

File: GMIIIA K366[0][4].msa
#FORMAT      : EMSA/MAS Spectral Data File
#VERSION     : 1.0
#TITLE       : GMIIIA K366[0][all]
#DATE        : 22-SEP-2025
#TIME        : 15:36
#OWNER       : Unknown
#NPOINTS     : 4096
#NCOLUMNS    : 1
#XUNITS      : eV
#YUNITS      : counts
#DATATYPE    : Y
#XPERCHAN    : 9.99778
#OFFSET      : 1.69135
#BEAMKV      : 15
#SIGNALTYPE  : EDS
#ELEVANGLE   : 35
#AZIMANGLE   : 0
#LIVETIME    : 240.012
#REALTIME    : 260.386
#PROBECUR    : 1.21681
#TAUWIND     : 0
#TDEADLYR    : 0
#TACTLYR     : 0.045
#TALWIND     : 0.025
#CHOFFSET    : 0.0
#XLABEL      : Energy (eV)
#YLABEL      : Counts
#XPOSITION   : 8.38481
#YPOSITION   : 4.16745
#ZPOSITION   : 37.36299
#EDSDET      : SD
##SPECIMEN   : GMIIIA K366[0][all]
##D2STDCMP   : K366,(O:20.43),(Si:13.45),(Pb:66.12)
##DET_HASH   : 12273538-fd48-a23f-0a19-f1e6fa85caef
##CALIB_HASH : 6abaa72c-aa41-8738-0be9-f592914732f3
##WORKING    : 15.0 mm
##DET_NAME   : EDAX All
##DET_MODE   : MediumLE
#SPECTRUM    :
26,
614,
13425,
8661,
33239,
8720,
7734,
8284,
8795,
9401,
9736,
10329,
44128,
33179,
7912,
7937,
15855,
119302,
20042,
10677,
4875,
5392,
6332,
4666,
4459,
4493,
4296,
4349,
4067,
4225,
4105,
3844,
3983,
3848,
3800,
3680,
3567,
3392,
3336,
3199,
3134,
3051,
2984,
2924,
2801,
2807,
2759,
2585,
2521,
2532,
2316,
2305,
2131,
2286,
2091,
2054,
1920,
1888,
1870,
1738,
1747,
1705,
1615,
1611,
1534,
1481,
1419,
1301,
1303,
1245,
1195,
1155,
1071,
1062,
1139,
2175,
1488,
913,
847,
833,
803,
722,
703,
666,
620,
599,
563,
536,
500,
503,
607,
457,
349,
327,
273,
287,
219,
227,
219,
192,
158,
130,
112,
91,
52,
45,
24,
13,
10,
2,
2,
3,
1,
10,
3,
1,
4,
2,
2,
0,
3,
0,
0,
0,
2,
4,
3,
0,
0,
1,
2,
0,
1,
2,
3,
0,
0,
0,
1,
0,
0,
0,
0,
0,
0,
1,
0,
0,
0,
1,
1,
0,
0,
0,
0,
0,
0,
0,
0,
0,
0,
0,
0,
0,
0,
0,
0,
0,
0,
0,
0,
1,
0,
0,
0,
0,
0,
0,
0,
0,
0,
0,
1,
0,
0,
1,
0,
0,
0,
0,
0,
0,
0,
0,
0,
0,
0,
0,
0,
0,
0,
0,
0,
0,
0,
0,
0,
0,
0,
0,
0,
0,
0,
0,
0,
0,
0,
0,
0,
0,
0,
0,
0,
0,
0,
0,
0,
0,
0,
0,
0,
0,
0,
0,
0,
0,
0,
0,
0,
0,
0,
0,
0,
0,
0,
0,
0,
0,
0,
0,
0,
0,
0,
0,
0,
0,
0,
0,
0,
0,
0,
0,
0,
0,
0,
0,
0,
0,
0,
0,
0,
0,
0,
0,
0,
0,
0,
0,
0,
0,
0,
0,
0,
0,
0,
0,
0,
0,
0,
0,
0,
0,
0,
0,
#ENDOFDATA   :

File: GMIIIA K366[1][4].msa
#FORMAT      : EMSA/MAS Spectral Data File
#VERSION     : 1.0
#TITLE       : GMIIIA K366[1][all]
#DATE        : 22-SEP-2025
#TIME        : 15:37
#OWNER       : Unknown
#NPOINTS     : 4096
#NCOLUMNS    : 1
#XUNITS      : eV
#YUNITS      : counts
#DATATYPE    : Y
#XPERCHAN    : 9.99778
#OFFSET      : 1.69135
#BEAMKV      : 15
#SIGNALTYPE  : EDS
#ELEVANGLE   : 35
#AZIMANGLE   : 0
#LIVETIME    : 240.025
#REALTIME    : 260.388
#PROBECUR    : 1.21681
#TAUWIND     : 0
#TDEADLYR    : 0
#TACTLYR     : 0.045
#TALWIND     : 0.025
#CHOFFSET    : 0.0
#XLABEL      : Energy (eV)
#YLABEL      : Counts
#XPOSITION   : 8.38717
#YPOSITION   : 4.17241
#ZPOSITION   : 37.36299
#EDSDET      : SD
##SPECIMEN   : GMIIIA K366[1][all]
##D2STDCMP   : K366,(O:20.43),(Si:13.45),(Pb:66.12)
##DET_HASH   : 12273538-fd48-a23f-0a19-f1e6fa85caef
##CALIB_HASH : 6abaa72c-aa41-8738-0be9-f592914732f3
##WORKING    : 15.0 mm
##DET_NAME   : EDAX All
##DET_MODE   : MediumLE
#SPECTRUM    :
30,
619,
13003,
8421,
33155,
8351,
7550,
8264,
8767,
9492,
9757,
10151,
43513,
33118,
8034,
7883,
15895,
118654,
19885,
10519,
4887,
5213,
6241,
4818,
4509,
4612,
4257,
4338,
4052,
4189,
4223,
3723,
4059,
3798,
3845,
3636,
3398,
3501,
3404,
3206,
3118,
3077,
2944,
2921,
2863,
2812,
2835,
2501,
2456,
2504,
2404,
2302,
2203,
2265,
2147,
1963,
1932,
1876,
1830,
1859,
1733,
1610,
1582,
1582,
1509,
1441,
1471,
1363,
1352,
1189,
1180,
1198,
1079,
1071,
1131,
2164,
1426,
904,
879,
835,
795,
787,
679,
622,
630,
587,
554,
534,
468,
539,
704,
428,
377,
359,
333,
288,
264,
222,
185,
162,
150,
118,
91,
65,
78,
52,
30,
15,
1,
4,
3,
5,
1,
1,
6,
0,
0,
4,
1,
4,
3,
2,
1,
2,
0,
4,
0,
1,
2,
1,
0,
2,
1,
2,
0,
2,
0,
0,
0,
1,
1,
0,
1,
0,
0,
0,
1,
0,
0,
0,
0,
0,
0,
0,
0,
0,
1,
0,
0,
0,
0,
0,
0,
0,
0,
0,
0,
0,
0,
0,
0,
0,
0,
0,
0,
0,
1,
0,
0,
0,
0,
0,
0,
0,
0,
0,
0,
0,
0,
0,
0,
0,
0,
0,
0,
0,
0,
0,
0,
0,
0,
0,
0,
0,
0,
0,
0,
0,
0,
0,
0,
0,
0,
0,
0,
0,
0,
0,
0,
0,
0,
0,
0,
0,
0,
0,
0,
0,
0,
0,
0,
0,
0,
0,
0,
0,
0,
0,
0,
0,
0,
0,
0,
0,
0,
0,
0,
0,
0,
0,
0,
0,
0,
0,
0,
0,
0,
0,
0,
0,
0,
0,
0,
0,
0,
0,
0,
0,
0,
0,
0,
0,
0,
0,
0,
0,
0,
0,
0,
0,
0,
0,
0,
0,
0,
0,
0,
0,
0,
0,
0,
0,
0,
0,
#ENDOFDATA   :

File: GMIIIA K366[2][4].msa
#FORMAT      : EMSA/MAS Spectral Data File
#VERSION     : 1.0
#TITLE       : GMIIIA K366[2][all]
#DATE        : 22-SEP-2025
#TIME        : 15:38
#OWNER       : Unknown
#NPOINTS     : 4096
#NCOLUMNS    : 1
#XUNITS      : eV
#YUNITS      : counts
#DATATYPE    : Y
#XPERCHAN    : 9.99778
#OFFSET      : 1.69135
#BEAMKV      : 15
#SIGNALTYPE  : EDS
#ELEVANGLE   : 35
#AZIMANGLE   : 0
#LIVETIME    : 240.017
#REALTIME    : 260.388
#PROBECUR    : 1.21681
#TAUWIND     : 0
#TDEADLYR    : 0
#TACTLYR     : 0.045
#TALWIND     : 0.025
#CHOFFSET    : 0.0
#XLABEL      : Energy (eV)
#YLABEL      : Counts
#XPOSITION   : 8.32833
#YPOSITION   : 4.16236
#ZPOSITION   : 37.36299
#EDSDET      : SD
##SPECIMEN   : GMIIIA K366[2][all]
##D2STDCMP   : K366,(O:20.43),(Si:13.45),(Pb:66.12)
##DET_HASH   : 12273538-fd48-a23f-0a19-f1e6fa85caef
##CALIB_HASH : 6abaa72c-aa41-8738-0be9-f592914732f3
##WORKING    : 15.0 mm
##DET_NAME   : EDAX All
##DET_MODE   : MediumLE
#SPECTRUM    :
34,
616,
12928,
8437,
33043,
8598,
7759,
8233,
8713,
9194,
9807,
10287,
43657,
33110,
7889,
7875,
15998,
118731,
19855,
10718,
4919,
5292,
6361,
4703,
4498,
4596,
4205,
4325,
4122,
4016,
4175,
4019,
4083,
3725,
3856,
3747,
3524,
3317,
3303,
3224,
3185,
3137,
2986,
2896,
2734,
2721,
2756,
2558,
2480,
2427,
2336,
2251,
2223,
2244,
2050,
2004,
1940,
1836,
1857,
1802,
1714,
1713,
1538,
1522,
1491,
1529,
1428,
1342,
1276,
1224,
1213,
1155,
1128,
1050,
1120,
2185,
1466,
935,
843,
839,
765,
745,
674,
645,
641,
614,
553,
575,
476,
500,
666,
444,
366,
334,
304,
260,
231,
246,
222,
168,
160,
119,
98,
90,
85,
35,
26,
14,
3,
3,
0,
5,
1,
4,
2,
2,
1,
0,
1,
3,
3,
3,
0,
4,
1,
2,
0,
1,
1,
0,
0,
0,
1,
0,
0,
1,
0,
2,
1,
2,
0,
2,
0,
1,
0,
0,
0,
0,
0,
0,
0,
1,
0,
2,
1,
0,
0,
0,
0,
0,
1,
0,
0,
0,
0,
0,
0,
0,
0,
0,
0,
0,
0,
0,
0,
0,
0,
1,
0,
0,
0,
0,
0,
0,
0,
0,
0,
0,
0,
0,
0,
0,
0,
0,
1,
0,
0,
0,
0,
0,
0,
0,
0,
0,
0,
0,
0,
0,
0,
0,
0,
0,
0,
0,
0,
0,
0,
0,
0,
0,
0,
0,
0,
0,
0,
0,
0,
0,
0,
0,
0,
0,
0,
0,
0,
0,
0,
0,
0,
0,
0,
0,
0,
0,
0,
0,
0,
0,
0,
0,
0,
0,
0,
0,
0,
0,
0,
0,
0,
0,
0,
0,
0,
0,
0,
0,
0,
0,
0,
0,
0,
0,
0,
0,
0,
0,
0,
0,
0,
0,
0,
0,
0,
0,
0,
0,
0,
0,
0,
0,
0,
0,
0,
0,
#ENDOFDATA   :

File: GMIIIA K1001[0][4].msa
#FORMAT      : EMSA/MAS Spectral Data File
#VERSION     : 1.0
#TITLE       : GMIIIA K1001[0][all]
#DATE        : 22-SEP-2025
#TIME        : 21:52
#OWNER       : Unknown
#NPOINTS     : 4096
#NCOLUMNS    : 1
#XUNITS      : eV
#YUNITS      : counts
#DATATYPE    : Y
#XPERCHAN    : 9.99778
#OFFSET      : 1.69135
#BEAMKV      : 15
#SIGNALTYPE  : EDS
#ELEVANGLE   : 35
#AZIMANGLE   : 0
#LIVETIME    : 239.9563
#REALTIME    : 256.229
#PROBECUR    : 1.21615
#TAUWIND     : 0
#TDEADLYR    : 0
#TACTLYR     : 0.045
#TALWIND     : 0.025
#CHOFFSET    : 0.0
#XLABEL      : Energy (eV)
#YLABEL      : Counts
#XPOSITION   : 13.48187
#YPOSITION   : 15.08271
#ZPOSITION   : 37.36299
#EDSDET      : SD
##SPECIMEN   : GMIIIA K1001[0][all]
##D2STDCMP   : K1001,(O:39.47),(Na:1.67),(Mg:1.36),(Al:8.92),(Si:21.02),(K:1.87),(Ca:6.75),(Rb:2.06),(Sr:10.05),(Pr:1.92),(Nd:1.93),(Er:1.97),(Pb:1.04)
##DET_HASH   : 12273538-fd48-a23f-0a19-f1e6fa85caef
##CALIB_HASH : 6abaa72c-aa41-8738-0be9-f592914732f3
##WORKING    : 15.0 mm
##DET_NAME   : EDAX All
##DET_MODE   : MediumLE
#SPECTRUM    :
19,
300,
9443,
7683,
56003,
4578,
4745,
9369,
6530,
16598,
14428,
30808,
57510,
59054,
5325,
3051,
3651,
4225,
3071,
2917,
2761,
2733,
2656,
3498,
6366,
2818,
14278,
5851,
2460,
3612,
1903,
1834,
1815,
1770,
1621,
1690,
2942,
2140,
1657,
1934,
1512,
1702,
1434,
1164,
1233,
1144,
1053,
1041,
961,
1166,
1265,
789,
814,
782,
766,
803,
875,
729,
706,
613,
615,
569,
581,
512,
522,
501,
480,
436,
445,
416,
419,
382,
305,
313,
318,
327,
309,
250,
249,
252,
207,
227,
200,
193,
164,
156,
165,
153,
126,
127,
130,
90,
78,
80,
85,
71,
64,
49,
46,
52,
32,
34,
21,
24,
14,
10,
4,
3,
2,
1,
1,
0,
0,
1,
0,
1,
0,
2,
0,
0,
0,
0,
0,
0,
0,
0,
0,
0,
0,
0,
0,
0,
0,
0,
0,
0,
0,
0,
0,
0,
1,
0,
0,
0,
0,
0,
0,
0,
0,
0,
0,
0,
0,
0,
0,
0,
0,
0,
0,
0,
0,
0,
0,
0,
0,
0,
0,
0,
0,
0,
0,
0,
0,
0,
0,
0,
0,
0,
0,
0,
0,
0,
0,
0,
0,
0,
0,
0,
0,
0,
0,
0,
0,
0,
0,
0,
0,
0,
0,
0,
0,
0,
0,
0,
0,
0,
0,
0,
0,
0,
0,
0,
0,
0,
0,
0,
0,
0,
0,
0,
0,
0,
0,
0,
0,
0,
0,
0,
0,
0,
0,
0,
0,
0,
0,
0,
0,
0,
0,
0,
0,
0,
0,
0,
0,
0,
0,
0,
0,
0,
0,
0,
0,
0,
0,
0,
0,
0,
0,
0,
0,
0,
0,
0,
0,
0,
0,
0,
0,
0,
0,
0,
0,
0,
0,
0,
0,
0,
0,
0,
0,
0,
0,
0,
0,
0,
0,
0,
0,
0,
0,
0,
0,
0,
#ENDOFDATA   :

File: GMIIIA K1001[1][4].msa
#FORMAT      : EMSA/MAS Spectral Data File
#VERSION     : 1.0
#TITLE       : GMIIIA K1001[1][all]
#DATE        : 22-SEP-2025
#TIME        : 21:53
#OWNER       : Unknown
#NPOINTS     : 4096
#NCOLUMNS    : 1
#XUNITS      : eV
#YUNITS      : counts
#DATATYPE    : Y
#XPERCHAN    : 9.99778
#OFFSET      : 1.69135
#BEAMKV      : 15
#SIGNALTYPE  : EDS
#ELEVANGLE   : 35
#AZIMANGLE   : 0
#LIVETIME    : 239.999
#REALTIME    : 256.293
#PROBECUR    : 1.21615
#TAUWIND     : 0
#TDEADLYR    : 0
#TACTLYR     : 0.045
#TALWIND     : 0.025
#CHOFFSET    : 0.0
#XLABEL      : Energy (eV)
#YLABEL      : Counts
#XPOSITION   : 13.46578
#YPOSITION   : 15.0759
#ZPOSITION   : 37.36299
#EDSDET      : SD
##SPECIMEN   : GMIIIA K1001[1][all]
##D2STDCMP   : K1001,(O:39.47),(Na:1.67),(Mg:1.36),(Al:8.92),(Si:21.02),(K:1.87),(Ca:6.75),(Rb:2.06),(Sr:10.05),(Pr:1.92),(Nd:1.93),(Er:1.97),(Pb:1.04)
##DET_HASH   : 12273538-fd48-a23f-0a19-f1e6fa85caef
##CALIB_HASH : 6abaa72c-aa41-8738-0be9-f592914732f3
##WORKING    : 15.0 mm
##DET_NAME   : EDAX All
##DET_MODE   : MediumLE
#SPECTRUM    :
22,
297,
8856,
7449,
56331,
4532,
4696,
9440,
6736,
16880,
14362,
30930,
57150,
58972,
5464,
3124,
3654,
4240,
3009,
2846,
2835,
2837,
2726,
3475,
6369,
2761,
14345,
5848,
2474,
3657,
1930,
1789,
1771,
1741,
1576,
1701,
2811,
2044,
1632,
1978,
1526,
1650,
1391,
1243,
1203,
1197,
1047,
1141,
971,
1121,
1256,
794,
796,
813,
742,
757,
889,
707,
705,
627,
615,
581,
563,
492,
509,
501,
442,
471,
430,
399,
373,
360,
330,
304,
337,
324,
299,
270,
250,
237,
235,
215,
193,
171,
186,
167,
157,
127,
128,
114,
105,
97,
98,
97,
75,
58,
59,
46,
43,
44,
36,
25,
25,
24,
18,
6,
4,
2,
0,
0,
1,
0,
0,
1,
0,
0,
0,
1,
1,
0,
0,
0,
0,
0,
1,
1,
0,
0,
0,
0,
0,
0,
0,
0,
0,
0,
0,
0,
0,
0,
0,
0,
0,
0,
0,
0,
0,
0,
0,
0,
0,
0,
0,
0,
0,
0,
0,
0,
0,
0,
0,
0,
0,
0,
0,
0,
0,
0,
0,
0,
0,
0,
0,
0,
0,
0,
0,
0,
0,
0,
0,
0,
0,
0,
0,
0,
0,
0,
0,
0,
0,
0,
0,
0,
0,
0,
0,
0,
0,
0,
0,
0,
0,
0,
0,
0,
0,
0,
0,
0,
0,
0,
0,
0,
0,
0,
0,
0,
0,
0,
0,
0,
0,
0,
0,
0,
0,
0,
0,
0,
0,
0,
0,
0,
0,
0,
0,
0,
0,
0,
0,
0,
0,
0,
0,
0,
0,
0,
0,
0,
0,
0,
0,
0,
0,
0,
0,
0,
0,
0,
0,
0,
0,
0,
0,
0,
0,
0,
0,
0,
0,
0,
0,
0,
0,
0,
0,
0,
0,
0,
0,
0,
0,
0,
0,
0,
0,
0,
0,
0,
0,
0,
0,
0,
#ENDOFDATA   :

File: GMIIIA K1001[2][4].msa
#FORMAT      : EMSA/MAS Spectral Data File
#VERSION     : 1.0
#TITLE       : GMIIIA K1001[2][all]
#DATE        : 22-SEP-2025
#TIME        : 21:54
#OWNER       : Unknown
#NPOINTS     : 4096
#NCOLUMNS    : 1
#XUNITS      : eV
#YUNITS      : counts
#DATATYPE    : Y
#XPERCHAN    : 9.99778
#OFFSET      : 1.69135
#BEAMKV      : 15
#SIGNALTYPE  : EDS
#ELEVANGLE   : 35
#AZIMANGLE   : 0
#LIVETIME    : 239.944
#REALTIME    : 256.225
#PROBECUR    : 1.21615
#TAUWIND     : 0
#TDEADLYR    : 0
#TACTLYR     : 0.045
#TALWIND     : 0.025
#CHOFFSET    : 0.0
#XLABEL      : Energy (eV)
#YLABEL      : Counts
#XPOSITION   : 13.5069
#YPOSITION   : 15.02466
#ZPOSITION   : 37.36299
#EDSDET      : SD
##SPECIMEN   : GMIIIA K1001[2][all]
##D2STDCMP   : K1001,(O:39.47),(Na:1.67),(Mg:1.36),(Al:8.92),(Si:21.02),(K:1.87),(Ca:6.75),(Rb:2.06),(Sr:10.05),(Pr:1.92),(Nd:1.93),(Er:1.97),(Pb:1.04)
##DET_HASH   : 12273538-fd48-a23f-0a19-f1e6fa85caef
##CALIB_HASH : 6abaa72c-aa41-8738-0be9-f592914732f3
##WORKING    : 15.0 mm
##DET_NAME   : EDAX All
##DET_MODE   : MediumLE
#SPECTRUM    :
28,
274,
9098,
7549,
56049,
4585,
4784,
9480,
6637,
16555,
14502,
30825,
56970,
58937,
5369,
3196,
3510,
4266,
3053,
2816,
2784,
2716,
2544,
3494,
6504,
2771,
14206,
5860,
2482,
3695,
1870,
1672,
1843,
1774,
1551,
1661,
2982,
2130,
1649,
1910,
1464,
1677,
1525,
1290,
1199,
1143,
1107,
1077,
925,
1205,
1235,
833,
787,
773,
753,
729,
954,
731,
699,
661,
604,
553,
543,
539,
493,
534,
495,
447,
431,
388,
392,
367,
334,
336,
320,
299,
308,
256,
238,
244,
229,
186,
192,
186,
183,
153,
148,
137,
152,
128,
126,
103,
83,
73,
75,
74,
62,
58,
46,
42,
36,
29,
27,
19,
12,
10,
7,
3,
2,
0,
0,
1,
1,
1,
1,
0,
0,
0,
0,
0,
0,
0,
0,
0,
0,
0,
0,
0,
0,
0,
0,
0,
1,
0,
0,
0,
0,
0,
1,
0,
0,
0,
0,
0,
0,
0,
0,
0,
0,
1,
0,
0,
0,
0,
0,
0,
0,
0,
0,
0,
0,
0,
0,
0,
0,
0,
0,
0,
0,
0,
0,
0,
0,
0,
0,
0,
0,
0,
0,
0,
0,
0,
0,
0,
0,
0,
0,
0,
0,
0,
0,
0,
0,
0,
0,
0,
0,
0,
0,
0,
0,
0,
0,
0,
0,
0,
0,
0,
0,
0,
0,
0,
0,
0,
0,
0,
0,
0,
0,
0,
0,
0,
0,
0,
0,
0,
0,
0,
0,
0,
0,
0,
0,
0,
0,
0,
0,
0,
0,
0,
0,
0,
0,
0,
0,
0,
0,
0,
0,
0,
0,
0,
0,
0,
0,
0,
0,
0,
0,
0,
0,
0,
0,
0,
0,
0,
0,
0,
0,
0,
0,
0,
0,
0,
0,
0,
0,
0,
0,
0,
0,
0,
0,
0,
0,
0,
0,
0,
0,
0,
0,
0,
0,
0,
#ENDOFDATA   :

File: GMIIIA K1001[3][4].msa
#FORMAT      : EMSA/MAS Spectral Data File
#VERSION     : 1.0
#TITLE       : GMIIIA K1001[3][all]
#DATE        : 22-SEP-2025
#TIME        : 21:55
#OWNER       : Unknown
#NPOINTS     : 4096
#NCOLUMNS    : 1
#XUNITS      : eV
#YUNITS      : counts
#DATATYPE    : Y
#XPERCHAN    : 9.99778
#OFFSET      : 1.69135
#BEAMKV      : 15
#SIGNALTYPE  : EDS
#ELEVANGLE   : 35
#AZIMANGLE   : 0
#LIVETIME    : 240.007
#REALTIME    : 256.292
#PROBECUR    : 1.21615
#TAUWIND     : 0
#TDEADLYR    : 0
#TACTLYR     : 0.045
#TALWIND     : 0.025
#CHOFFSET    : 0.0
#XLABEL      : Energy (eV)
#YLABEL      : Counts
#XPOSITION   : 13.51371
#YPOSITION   : 15.06616
#ZPOSITION   : 37.36299
#EDSDET      : SD
##SPECIMEN   : GMIIIA K1001[3][all]
##D2STDCMP   : K1001,(O:39.47),(Na:1.67),(Mg:1.36),(Al:8.92),(Si:21.02),(K:1.87),(Ca:6.75),(Rb:2.06),(Sr:10.05),(Pr:1.92),(Nd:1.93),(Er:1.97),(Pb:1.04)
##DET_HASH   : 12273538-fd48-a23f-0a19-f1e6fa85caef
##CALIB_HASH : 6abaa72c-aa41-8738-0be9-f592914732f3
##WORKING    : 15.0 mm
##DET_NAME   : EDAX All
##DET_MODE   : MediumLE
#SPECTRUM    :
18,
300,
8887,
7509,
56109,
4553,
4737,
9417,
6605,
16527,
14405,
30410,
57403,
59011,
5414,
3217,
3627,
4251,
3112,
3008,
2770,
2729,
2592,
3460,
6467,
2724,
14313,
5989,
2544,
3666,
1830,
1757,
1864,
1719,
1570,
1621,
2840,
2091,
1576,
1809,
1525,
1673,
1410,
1253,
1141,
1180,
1009,
1119,
932,
1078,
1259,
833,
791,
785,
747,
748,
878,
685,
707,
664,
626,
542,
509,
492,
491,
499,
456,
433,
426,
371,
384,
328,
371,
345,
336,
286,
300,
294,
245,
229,
217,
208,
211,
205,
173,
174,
144,
148,
139,
117,
116,
111,
104,
94,
80,
83,
64,
52,
56,
42,
44,
30,
23,
17,
14,
12,
3,
3,
2,
0,
0,
1,
1,
1,
0,
0,
2,
0,
2,
0,
0,
0,
0,
0,
0,
0,
0,
0,
0,
0,
0,
0,
0,
0,
0,
0,
0,
0,
0,
0,
0,
0,
0,
0,
0,
0,
0,
0,
0,
0,
0,
0,
0,
0,
0,
0,
0,
0,
0,
0,
0,
0,
0,
0,
0,
0,
0,
0,
0,
0,
0,
0,
0,
0,
0,
0,
0,
0,
0,
0,
0,
0,
0,
0,
0,
0,
0,
0,
0,
0,
0,
0,
0,
0,
0,
0,
0,
0,
0,
0,
0,
0,
0,
0,
0,
0,
0,
0,
0,
0,
0,
0,
0,
0,
0,
0,
0,
0,
0,
0,
0,
0,
0,
0,
0,
0,
0,
0,
0,
0,
0,
0,
0,
0,
0,
0,
0,
0,
0,
0,
0,
0,
0,
0,
0,
0,
0,
0,
0,
0,
0,
0,
0,
0,
0,
0,
0,
0,
0,
0,
0,
0,
0,
0,
0,
0,
0,
0,
0,
0,
0,
0,
0,
0,
0,
0,
0,
0,
0,
0,
0,
0,
0,
0,
0,
0,
0,
0,
0,
0,
0,
0,
0,
0,
#ENDOFDATA   :