Folder: spex_quant/N132962/Quantification/15 keV/GMIIIA (part 4)

File: GMIIIA K249[5][4].msa
#FORMAT      : EMSA/MAS Spectral Data File
#VERSION     : 1.0
#TITLE       : GMIIIA K249[5][all]
#DATE        : 22-SEP-2025
#TIME        : 15:09
#OWNER       : Unknown
#NPOINTS     : 4096
#NCOLUMNS    : 1
#XUNITS      : eV
#YUNITS      : counts
#DATATYPE    : Y
#XPERCHAN    : 9.99778
#OFFSET      : 1.69135
#BEAMKV      : 15
#SIGNALTYPE  : EDS
#ELEVANGLE   : 35
#AZIMANGLE   : 0
#LIVETIME    : 240.045
#REALTIME    : 259.044
#PROBECUR    : 1.21732
#TAUWIND     : 0
#TDEADLYR    : 0
#TACTLYR     : 0.045
#TALWIND     : 0.025
#CHOFFSET    : 0.0
#XLABEL      : Energy (eV)
#YLABEL      : Counts
#XPOSITION   : 9.11763
#YPOSITION   : 2.30568
#ZPOSITION   : 37.36299
#EDSDET      : SD
##SPECIMEN   : GMIIIA K249[5][all]
##D2STDCMP   : K249,(O:24.49),(Al:2.65),(Si:14.02),(Ba:8.96),(Ta:8.19),(Pb:39.45),(Bi:2.24)
##DET_HASH   : 12273538-fd48-a23f-0a19-f1e6fa85caef
##CALIB_HASH : 6abaa72c-aa41-8738-0be9-f592914732f3
##WORKING    : 15.0 mm
##DET_NAME   : EDAX All
##DET_MODE   : MediumLE
#SPECTRUM    :
21,
475,
11563,
9116,
42703,
7302,
7227,
7963,
7825,
8455,
10308,
16173,
58079,
30325,
7288,
6510,
11060,
67842,
14826,
8120,
4618,
4801,
5432,
4540,
4108,
4257,
3981,
3924,
4103,
3833,
3711,
3940,
11507,
3495,
4803,
5361,
3324,
4265,
2941,
3035,
2936,
2733,
2620,
2462,
2494,
2417,
2432,
2184,
2157,
1937,
2074,
2027,
1894,
1849,
1668,
1667,
1719,
1670,
2986,
1754,
1485,
1361,
1343,
1282,
1286,
1245,
1464,
1420,
1196,
1304,
1006,
939,
850,
925,
907,
1433,
1037,
823,
800,
648,
633,
610,
573,
564,
527,
470,
435,
434,
376,
361,
463,
306,
302,
284,
246,
250,
203,
152,
129,
157,
133,
94,
86,
58,
49,
34,
18,
4,
4,
5,
4,
2,
1,
2,
1,
1,
2,
2,
1,
2,
1,
2,
1,
3,
1,
2,
1,
1,
2,
2,
1,
1,
0,
1,
0,
0,
0,
0,
1,
0,
1,
0,
2,
1,
0,
0,
0,
0,
0,
1,
1,
1,
0,
0,
0,
0,
0,
0,
0,
0,
0,
0,
0,
0,
0,
0,
0,
0,
0,
1,
0,
0,
0,
0,
0,
0,
0,
0,
0,
0,
0,
0,
0,
0,
0,
0,
0,
0,
0,
0,
0,
0,
0,
0,
0,
0,
0,
0,
0,
0,
0,
0,
0,
0,
0,
0,
0,
0,
0,
0,
0,
0,
0,
0,
0,
0,
0,
0,
0,
0,
0,
0,
0,
0,
0,
0,
0,
0,
0,
0,
0,
0,
0,
0,
0,
0,
0,
0,
0,
0,
0,
0,
0,
0,
0,
0,
0,
0,
0,
0,
0,
0,
0,
0,
0,
0,
0,
0,
0,
0,
0,
0,
0,
0,
0,
0,
0,
0,
0,
0,
0,
0,
0,
0,
0,
0,
0,
0,
0,
0,
0,
0,
0,
0,
0,
0,
0,
0,
0,
0,
0,
0,
0,
0,
#ENDOFDATA   :

File: GMIIIA K249[6][4].msa
#FORMAT      : EMSA/MAS Spectral Data File
#VERSION     : 1.0
#TITLE       : GMIIIA K249[6][all]
#DATE        : 22-SEP-2025
#TIME        : 15:11
#OWNER       : Unknown
#NPOINTS     : 4096
#NCOLUMNS    : 1
#XUNITS      : eV
#YUNITS      : counts
#DATATYPE    : Y
#XPERCHAN    : 9.99778
#OFFSET      : 1.69135
#BEAMKV      : 15
#SIGNALTYPE  : EDS
#ELEVANGLE   : 35
#AZIMANGLE   : 0
#LIVETIME    : 239.995
#REALTIME    : 258.985
#PROBECUR    : 1.21732
#TAUWIND     : 0
#TDEADLYR    : 0
#TACTLYR     : 0.045
#TALWIND     : 0.025
#CHOFFSET    : 0.0
#XLABEL      : Energy (eV)
#YLABEL      : Counts
#XPOSITION   : 9.13231
#YPOSITION   : 2.24187
#ZPOSITION   : 37.36299
#EDSDET      : SD
##SPECIMEN   : GMIIIA K249[6][all]
##D2STDCMP   : K249,(O:24.49),(Al:2.65),(Si:14.02),(Ba:8.96),(Ta:8.19),(Pb:39.45),(Bi:2.24)
##DET_HASH   : 12273538-fd48-a23f-0a19-f1e6fa85caef
##CALIB_HASH : 6abaa72c-aa41-8738-0be9-f592914732f3
##WORKING    : 15.0 mm
##DET_NAME   : EDAX All
##DET_MODE   : MediumLE
#SPECTRUM    :
26,
509,
11620,
9186,
42599,
7232,
7162,
8038,
7733,
8757,
10222,
16085,
57950,
30866,
6958,
6484,
11023,
67804,
15166,
8166,
4591,
4697,
5381,
4628,
4175,
4228,
4051,
3944,
4029,
3736,
3652,
3999,
11519,
3421,
4748,
5381,
3440,
4322,
2878,
3058,
2941,
2737,
2640,
2480,
2452,
2436,
2272,
2183,
2161,
2145,
2063,
2027,
1898,
1916,
1784,
1732,
1670,
1722,
2920,
1759,
1436,
1480,
1292,
1343,
1221,
1296,
1425,
1497,
1154,
1247,
1047,
1029,
926,
840,
878,
1476,
1057,
801,
803,
682,
669,
663,
612,
545,
484,
461,
457,
467,
360,
427,
463,
346,
294,
299,
267,
235,
184,
166,
175,
111,
126,
101,
101,
72,
48,
44,
21,
10,
3,
7,
4,
1,
1,
5,
1,
1,
1,
1,
2,
0,
0,
0,
1,
3,
2,
0,
1,
1,
0,
0,
0,
0,
1,
0,
1,
2,
0,
1,
0,
0,
0,
0,
1,
0,
0,
0,
0,
0,
0,
0,
0,
0,
0,
0,
0,
0,
0,
0,
0,
0,
0,
1,
0,
0,
0,
0,
0,
1,
0,
0,
0,
0,
0,
0,
0,
0,
1,
0,
0,
0,
0,
0,
0,
0,
0,
0,
0,
0,
0,
0,
0,
0,
0,
0,
0,
0,
0,
0,
0,
0,
0,
0,
0,
0,
0,
0,
0,
0,
0,
0,
0,
0,
0,
0,
0,
0,
0,
0,
0,
0,
0,
0,
0,
0,
0,
0,
0,
0,
0,
0,
0,
0,
0,
0,
0,
0,
0,
0,
0,
0,
0,
0,
0,
0,
0,
0,
0,
0,
0,
0,
0,
0,
0,
0,
0,
0,
0,
0,
0,
0,
0,
0,
0,
0,
0,
0,
0,
0,
0,
0,
0,
0,
0,
0,
0,
0,
0,
0,
0,
0,
0,
0,
0,
0,
0,
0,
0,
0,
0,
0,
0,
0,
0,
0,
#ENDOFDATA   :

File: GMIIIA K251[0][4].msa
#FORMAT      : EMSA/MAS Spectral Data File
#VERSION     : 1.0
#TITLE       : GMIIIA K251[0][all]
#DATE        : 22-SEP-2025
#TIME        : 14:56
#OWNER       : Unknown
#NPOINTS     : 4096
#NCOLUMNS    : 1
#XUNITS      : eV
#YUNITS      : counts
#DATATYPE    : Y
#XPERCHAN    : 9.99778
#OFFSET      : 1.69135
#BEAMKV      : 15
#SIGNALTYPE  : EDS
#ELEVANGLE   : 35
#AZIMANGLE   : 0
#LIVETIME    : 239.982
#REALTIME    : 259.179
#PROBECUR    : 1.21732
#TAUWIND     : 0
#TDEADLYR    : 0
#TACTLYR     : 0.045
#TALWIND     : 0.025
#CHOFFSET    : 0.0
#XLABEL      : Energy (eV)
#YLABEL      : Counts
#XPOSITION   : 7.07991
#YPOSITION   : 2.4648
#ZPOSITION   : 37.36299
#EDSDET      : SD
##SPECIMEN   : GMIIIA K251[0][all]
##D2STDCMP   : K251,(O:23.02),(Al:1.32),(Si:14.02),(Ba:8.96),(Ta:4.09),(Pb:44.1),(Bi:4.48)
##DET_HASH   : 12273538-fd48-a23f-0a19-f1e6fa85caef
##CALIB_HASH : 6abaa72c-aa41-8738-0be9-f592914732f3
##WORKING    : 15.0 mm
##DET_NAME   : EDAX All
##DET_MODE   : MediumLE
#SPECTRUM    :
26,
566,
12467,
9276,
39707,
7812,
7243,
8162,
7705,
8623,
9565,
12966,
50697,
30159,
7273,
6715,
12090,
79268,
18918,
8735,
4904,
4853,
5692,
4690,
4235,
4321,
4036,
4041,
4228,
4053,
3713,
4197,
11648,
3633,
5101,
5537,
3430,
4380,
3047,
3145,
3126,
2938,
2739,
2656,
2504,
2420,
2443,
2329,
2202,
2197,
1988,
2032,
1944,
1962,
1823,
1870,
1680,
1709,
2289,
1760,
1531,
1485,
1471,
1376,
1324,
1296,
1390,
1351,
1175,
1189,
1095,
970,
1006,
930,
977,
1643,
1164,
841,
849,
705,
645,
653,
602,
595,
562,
516,
472,
462,
445,
391,
480,
370,
364,
301,
252,
231,
218,
184,
158,
160,
153,
99,
107,
73,
61,
39,
22,
7,
1,
5,
5,
4,
5,
0,
0,
0,
1,
0,
1,
0,
0,
2,
0,
0,
2,
4,
1,
1,
1,
0,
0,
0,
1,
0,
3,
0,
0,
1,
3,
0,
0,
0,
1,
0,
1,
0,
0,
1,
0,
1,
0,
0,
0,
0,
0,
0,
0,
0,
0,
0,
0,
0,
0,
0,
0,
0,
0,
0,
0,
0,
0,
0,
0,
0,
0,
0,
0,
1,
0,
0,
0,
0,
0,
0,
0,
0,
0,
0,
0,
0,
0,
0,
0,
0,
0,
0,
0,
0,
0,
0,
0,
0,
0,
0,
0,
0,
0,
0,
0,
0,
0,
0,
0,
0,
0,
0,
0,
0,
0,
0,
0,
0,
0,
0,
0,
0,
0,
0,
0,
0,
0,
0,
0,
0,
0,
0,
0,
0,
0,
0,
0,
0,
0,
0,
0,
0,
0,
0,
0,
0,
0,
0,
0,
0,
0,
0,
0,
0,
0,
0,
0,
0,
0,
0,
0,
0,
0,
0,
0,
0,
0,
0,
0,
0,
0,
0,
0,
0,
0,
0,
0,
0,
0,
0,
0,
0,
0,
0,
0,
0,
0,
0,
0,
0,
#ENDOFDATA   :

File: GMIIIA K251[1][4].msa
#FORMAT      : EMSA/MAS Spectral Data File
#VERSION     : 1.0
#TITLE       : GMIIIA K251[1][all]
#DATE        : 22-SEP-2025
#TIME        : 14:57
#OWNER       : Unknown
#NPOINTS     : 4096
#NCOLUMNS    : 1
#XUNITS      : eV
#YUNITS      : counts
#DATATYPE    : Y
#XPERCHAN    : 9.99778
#OFFSET      : 1.69135
#BEAMKV      : 15
#SIGNALTYPE  : EDS
#ELEVANGLE   : 35
#AZIMANGLE   : 0
#LIVETIME    : 239.922
#REALTIME    : 259.12
#PROBECUR    : 1.21732
#TAUWIND     : 0
#TDEADLYR    : 0
#TACTLYR     : 0.045
#TALWIND     : 0.025
#CHOFFSET    : 0.0
#XLABEL      : Energy (eV)
#YLABEL      : Counts
#XPOSITION   : 7.08115
#YPOSITION   : 2.42165
#ZPOSITION   : 37.36299
#EDSDET      : SD
##SPECIMEN   : GMIIIA K251[1][all]
##D2STDCMP   : K251,(O:23.02),(Al:1.32),(Si:14.02),(Ba:8.96),(Ta:4.09),(Pb:44.1),(Bi:4.48)
##DET_HASH   : 12273538-fd48-a23f-0a19-f1e6fa85caef
##CALIB_HASH : 6abaa72c-aa41-8738-0be9-f592914732f3
##WORKING    : 15.0 mm
##DET_NAME   : EDAX All
##DET_MODE   : MediumLE
#SPECTRUM    :
26,
591,
12400,
9170,
39763,
7614,
7378,
8230,
7904,
8561,
9519,
13044,
50455,
29962,
7259,
6724,
12303,
79637,
18777,
8838,
4791,
4932,
5614,
4704,
4309,
4262,
4090,
3993,
4130,
4050,
3775,
4091,
11570,
3527,
5013,
5632,
3427,
4476,
3069,
3216,
3057,
2917,
2802,
2656,
2485,
2486,
2414,
2324,
2275,
2171,
2130,
2086,
1885,
2012,
1866,
1800,
1678,
1743,
2360,
1760,
1488,
1455,
1423,
1365,
1305,
1342,
1297,
1423,
1218,
1219,
1029,
1081,
989,
954,
934,
1634,
1166,
827,
790,
709,
651,
669,
592,
547,
543,
488,
459,
445,
396,
420,
526,
399,
318,
319,
237,
240,
202,
196,
164,
163,
151,
118,
87,
70,
68,
38,
19,
4,
3,
3,
4,
1,
0,
2,
2,
3,
1,
2,
1,
2,
0,
3,
1,
0,
2,
1,
2,
2,
0,
2,
2,
0,
0,
0,
1,
1,
0,
0,
4,
0,
0,
0,
1,
1,
0,
1,
0,
0,
0,
0,
0,
0,
0,
0,
0,
0,
0,
0,
0,
0,
0,
0,
0,
0,
0,
0,
0,
0,
0,
0,
0,
0,
0,
0,
0,
0,
0,
0,
0,
0,
0,
0,
0,
0,
0,
0,
0,
0,
0,
0,
0,
0,
0,
0,
0,
0,
0,
0,
0,
0,
0,
0,
0,
0,
0,
0,
0,
0,
0,
0,
0,
0,
0,
0,
0,
0,
0,
0,
0,
0,
0,
0,
0,
0,
0,
0,
0,
0,
0,
0,
0,
0,
0,
0,
0,
0,
0,
0,
0,
0,
0,
0,
0,
0,
0,
0,
0,
0,
0,
0,
0,
0,
0,
0,
0,
0,
0,
0,
0,
0,
0,
0,
0,
0,
0,
0,
0,
0,
0,
0,
0,
0,
0,
0,
0,
0,
0,
0,
0,
0,
0,
0,
0,
0,
0,
0,
0,
0,
0,
0,
0,
0,
0,
0,
#ENDOFDATA   :

File: GMIIIA K251[2][4].msa
#FORMAT      : EMSA/MAS Spectral Data File
#VERSION     : 1.0
#TITLE       : GMIIIA K251[2][all]
#DATE        : 22-SEP-2025
#TIME        : 14:58
#OWNER       : Unknown
#NPOINTS     : 4096
#NCOLUMNS    : 1
#XUNITS      : eV
#YUNITS      : counts
#DATATYPE    : Y
#XPERCHAN    : 9.99778
#OFFSET      : 1.69135
#BEAMKV      : 15
#SIGNALTYPE  : EDS
#ELEVANGLE   : 35
#AZIMANGLE   : 0
#LIVETIME    : 239.936
#REALTIME    : 259.147
#PROBECUR    : 1.21732
#TAUWIND     : 0
#TDEADLYR    : 0
#TACTLYR     : 0.045
#TALWIND     : 0.025
#CHOFFSET    : 0.0
#XLABEL      : Energy (eV)
#YLABEL      : Counts
#XPOSITION   : 7.0718
#YPOSITION   : 2.45775
#ZPOSITION   : 37.36299
#EDSDET      : SD
##SPECIMEN   : GMIIIA K251[2][all]
##D2STDCMP   : K251,(O:23.02),(Al:1.32),(Si:14.02),(Ba:8.96),(Ta:4.09),(Pb:44.1),(Bi:4.48)
##DET_HASH   : 12273538-fd48-a23f-0a19-f1e6fa85caef
##CALIB_HASH : 6abaa72c-aa41-8738-0be9-f592914732f3
##WORKING    : 15.0 mm
##DET_NAME   : EDAX All
##DET_MODE   : MediumLE
#SPECTRUM    :
31,
563,
12315,
9346,
40276,
7947,
7382,
7982,
8132,
8573,
9630,
13291,
50791,
29941,
7323,
6765,
12088,
79484,
18807,
8791,
4834,
4881,
5769,
4715,
4336,
4278,
4201,
4098,
4095,
3974,
3925,
4208,
11587,
3582,
4939,
5489,
3526,
4386,
3048,
3195,
3074,
2939,
2722,
2527,
2540,
2393,
2474,
2378,
2238,
2169,
1978,
2077,
1963,
1925,
1882,
1838,
1695,
1805,
2393,
1659,
1559,
1499,
1441,
1403,
1338,
1295,
1312,
1376,
1226,
1247,
1065,
1085,
956,
862,
983,
1554,
1118,
874,
856,
706,
638,
652,
593,
578,
524,
486,
514,
463,
442,
374,
513,
328,
316,
320,
269,
230,
213,
215,
184,
137,
147,
103,
97,
88,
58,
44,
14,
6,
4,
5,
5,
0,
1,
2,
6,
1,
4,
1,
3,
0,
0,
2,
1,
0,
0,
5,
0,
1,
1,
1,
2,
1,
2,
1,
0,
1,
0,
0,
0,
1,
0,
1,
0,
0,
0,
0,
1,
1,
1,
0,
0,
0,
1,
0,
0,
1,
0,
1,
0,
1,
0,
0,
0,
0,
0,
1,
0,
0,
0,
0,
0,
0,
0,
0,
0,
0,
0,
0,
0,
0,
0,
0,
0,
0,
0,
0,
0,
0,
0,
0,
0,
0,
0,
0,
0,
0,
0,
0,
0,
0,
0,
0,
0,
0,
0,
0,
0,
0,
0,
0,
0,
0,
0,
0,
0,
0,
0,
0,
0,
0,
0,
0,
0,
0,
0,
0,
0,
0,
0,
0,
0,
0,
0,
0,
0,
0,
0,
0,
0,
0,
0,
0,
0,
0,
0,
0,
0,
0,
0,
0,
0,
0,
0,
0,
0,
0,
0,
0,
0,
0,
0,
0,
0,
0,
0,
0,
0,
0,
0,
0,
0,
0,
0,
0,
0,
0,
0,
0,
0,
0,
0,
0,
0,
0,
0,
0,
0,
0,
0,
0,
0,
0,
0,
0,
#ENDOFDATA   :

File: GMIIIA K251[3][4].msa
#FORMAT      : EMSA/MAS Spectral Data File
#VERSION     : 1.0
#TITLE       : GMIIIA K251[3][all]
#DATE        : 22-SEP-2025
#TIME        : 14:59
#OWNER       : Unknown
#NPOINTS     : 4096
#NCOLUMNS    : 1
#XUNITS      : eV
#YUNITS      : counts
#DATATYPE    : Y
#XPERCHAN    : 9.99778
#OFFSET      : 1.69135
#BEAMKV      : 15
#SIGNALTYPE  : EDS
#ELEVANGLE   : 35
#AZIMANGLE   : 0
#LIVETIME    : 239.983
#REALTIME    : 259.171
#PROBECUR    : 1.21732
#TAUWIND     : 0
#TDEADLYR    : 0
#TACTLYR     : 0.045
#TALWIND     : 0.025
#CHOFFSET    : 0.0
#XLABEL      : Energy (eV)
#YLABEL      : Counts
#XPOSITION   : 7.15532
#YPOSITION   : 2.47195
#ZPOSITION   : 37.36299
#EDSDET      : SD
##SPECIMEN   : GMIIIA K251[3][all]
##D2STDCMP   : K251,(O:23.02),(Al:1.32),(Si:14.02),(Ba:8.96),(Ta:4.09),(Pb:44.1),(Bi:4.48)
##DET_HASH   : 12273538-fd48-a23f-0a19-f1e6fa85caef
##CALIB_HASH : 6abaa72c-aa41-8738-0be9-f592914732f3
##WORKING    : 15.0 mm
##DET_NAME   : EDAX All
##DET_MODE   : MediumLE
#SPECTRUM    :
28,
546,
12297,
9009,
39869,
7853,
7397,
8109,
7902,
8582,
9787,
12892,
50939,
30292,
7303,
6818,
11901,
78605,
18891,
8857,
4816,
4889,
5643,
4677,
4294,
4190,
4041,
4029,
3973,
3971,
3879,
4138,
11694,
3566,
5062,
5485,
3484,
4432,
2938,
3158,
3052,
2921,
2679,
2572,
2510,
2498,
2405,
2248,
2160,
2045,
2125,
2124,
1986,
1941,
1858,
1794,
1733,
1715,
2310,
1730,
1515,
1505,
1442,
1338,
1361,
1272,
1338,
1335,
1181,
1204,
1105,
1018,
1024,
941,
973,
1620,
1164,
852,
810,
732,
674,
710,
580,
584,
534,
551,
503,
466,
443,
399,
489,
373,
331,
329,
268,
212,
193,
196,
184,
167,
125,
115,
99,
77,
52,
43,
25,
8,
3,
7,
3,
1,
2,
1,
0,
1,
4,
1,
1,
0,
3,
2,
1,
1,
1,
2,
1,
2,
2,
3,
0,
0,
1,
1,
0,
1,
1,
0,
0,
0,
1,
0,
0,
0,
1,
1,
0,
0,
0,
1,
0,
0,
0,
0,
0,
1,
0,
1,
1,
0,
0,
0,
0,
0,
0,
1,
0,
0,
0,
0,
0,
0,
0,
0,
0,
0,
0,
0,
0,
0,
0,
0,
0,
0,
0,
0,
1,
0,
0,
0,
0,
0,
0,
1,
0,
0,
0,
0,
0,
0,
0,
0,
0,
0,
0,
0,
0,
0,
0,
0,
0,
0,
0,
0,
0,
0,
0,
0,
0,
0,
0,
0,
0,
0,
0,
0,
0,
0,
0,
0,
0,
0,
0,
0,
0,
0,
0,
0,
0,
0,
0,
0,
0,
0,
0,
0,
0,
0,
0,
0,
0,
0,
0,
0,
0,
0,
0,
0,
0,
0,
0,
0,
0,
0,
0,
0,
0,
0,
0,
0,
0,
0,
0,
0,
0,
0,
0,
0,
0,
0,
0,
0,
0,
0,
0,
0,
0,
0,
0,
0,
0,
0,
0,
0,
#ENDOFDATA   :

File: GMIIIA K251[4][4].msa
#FORMAT      : EMSA/MAS Spectral Data File
#VERSION     : 1.0
#TITLE       : GMIIIA K251[4][all]
#DATE        : 22-SEP-2025
#TIME        : 15:00
#OWNER       : Unknown
#NPOINTS     : 4096
#NCOLUMNS    : 1
#XUNITS      : eV
#YUNITS      : counts
#DATATYPE    : Y
#XPERCHAN    : 9.99778
#OFFSET      : 1.69135
#BEAMKV      : 15
#SIGNALTYPE  : EDS
#ELEVANGLE   : 35
#AZIMANGLE   : 0
#LIVETIME    : 239.993
#REALTIME    : 259.181
#PROBECUR    : 1.21732
#TAUWIND     : 0
#TDEADLYR    : 0
#TACTLYR     : 0.045
#TALWIND     : 0.025
#CHOFFSET    : 0.0
#XLABEL      : Energy (eV)
#YLABEL      : Counts
#XPOSITION   : 7.09377
#YPOSITION   : 2.51252
#ZPOSITION   : 37.36299
#EDSDET      : SD
##SPECIMEN   : GMIIIA K251[4][all]
##D2STDCMP   : K251,(O:23.02),(Al:1.32),(Si:14.02),(Ba:8.96),(Ta:4.09),(Pb:44.1),(Bi:4.48)
##DET_HASH   : 12273538-fd48-a23f-0a19-f1e6fa85caef
##CALIB_HASH : 6abaa72c-aa41-8738-0be9-f592914732f3
##WORKING    : 15.0 mm
##DET_NAME   : EDAX All
##DET_MODE   : MediumLE
#SPECTRUM    :
31,
535,
12416,
9159,
40153,
7810,
7424,
8021,
7913,
8567,
9729,
12831,
50471,
29913,
7306,
6982,
12039,
79498,
18664,
8865,
4936,
5026,
5666,
4724,
4247,
4312,
4178,
4080,
4032,
3940,
3789,
4202,
11647,
3555,
4927,
5575,
3486,
4251,
3140,
3141,
3142,
2895,
2701,
2638,
2625,
2446,
2447,
2365,
2267,
2204,
2048,
2037,
1999,
1922,
1900,
1757,
1716,
1726,
2347,
1670,
1533,
1494,
1466,
1402,
1348,
1310,
1309,
1382,
1200,
1217,
1113,
1017,
994,
884,
941,
1612,
1149,
856,
804,
693,
711,
628,
619,
595,
540,
538,
493,
487,
429,
452,
483,
339,
335,
339,
256,
226,
203,
184,
168,
163,
110,
109,
82,
83,
65,
25,
20,
5,
1,
2,
2,
6,
3,
0,
2,
4,
4,
2,
3,
0,
3,
0,
1,
1,
1,
1,
1,
2,
1,
1,
0,
0,
1,
0,
1,
1,
2,
0,
0,
0,
0,
1,
0,
0,
0,
0,
0,
0,
0,
0,
0,
0,
0,
1,
0,
0,
0,
0,
1,
0,
0,
0,
0,
0,
0,
0,
0,
0,
0,
0,
0,
0,
0,
0,
0,
0,
0,
0,
0,
0,
0,
0,
0,
0,
0,
0,
0,
0,
0,
0,
0,
0,
0,
0,
0,
0,
0,
0,
0,
0,
0,
0,
0,
0,
0,
0,
0,
0,
0,
0,
0,
0,
0,
0,
0,
0,
0,
0,
0,
0,
0,
0,
0,
0,
0,
0,
0,
0,
0,
0,
0,
0,
0,
0,
0,
0,
0,
0,
0,
0,
0,
0,
0,
0,
0,
0,
0,
0,
0,
0,
0,
0,
0,
0,
0,
0,
0,
0,
0,
0,
0,
0,
0,
0,
0,
0,
0,
0,
0,
0,
0,
0,
0,
0,
0,
0,
0,
0,
0,
0,
0,
0,
0,
0,
0,
0,
0,
0,
0,
0,
0,
0,
0,
0,
#ENDOFDATA   :

File: GMIIIA K251[5][4].msa
#FORMAT      : EMSA/MAS Spectral Data File
#VERSION     : 1.0
#TITLE       : GMIIIA K251[5][all]
#DATE        : 22-SEP-2025
#TIME        : 15:01
#OWNER       : Unknown
#NPOINTS     : 4096
#NCOLUMNS    : 1
#XUNITS      : eV
#YUNITS      : counts
#DATATYPE    : Y
#XPERCHAN    : 9.99778
#OFFSET      : 1.69135
#BEAMKV      : 15
#SIGNALTYPE  : EDS
#ELEVANGLE   : 35
#AZIMANGLE   : 0
#LIVETIME    : 239.972
#REALTIME    : 259.1764
#PROBECUR    : 1.21732
#TAUWIND     : 0
#TDEADLYR    : 0
#TACTLYR     : 0.045
#TALWIND     : 0.025
#CHOFFSET    : 0.0
#XLABEL      : Energy (eV)
#YLABEL      : Counts
#XPOSITION   : 7.03313
#YPOSITION   : 2.46358
#ZPOSITION   : 37.36299
#EDSDET      : SD
##SPECIMEN   : GMIIIA K251[5][all]
##D2STDCMP   : K251,(O:23.02),(Al:1.32),(Si:14.02),(Ba:8.96),(Ta:4.09),(Pb:44.1),(Bi:4.48)
##DET_HASH   : 12273538-fd48-a23f-0a19-f1e6fa85caef
##CALIB_HASH : 6abaa72c-aa41-8738-0be9-f592914732f3
##WORKING    : 15.0 mm
##DET_NAME   : EDAX All
##DET_MODE   : MediumLE
#SPECTRUM    :
25,
573,
12298,
9182,
39795,
7872,
7386,
8133,
7920,
8653,
9633,
13094,
50588,
30174,
7325,
6830,
12210,
79755,
18711,
8628,
4729,
4807,
5687,
4829,
4261,
4295,
4168,
4170,
4057,
3986,
3803,
4151,
11604,
3639,
5004,
5518,
3445,
4376,
3052,
3130,
3132,
2861,
2691,
2603,
2549,
2476,
2423,
2377,
2283,
2150,
2110,
2130,
1990,
2066,
1873,
1843,
1699,
1802,
2321,
1679,
1501,
1480,
1432,
1420,
1327,
1257,
1422,
1394,
1196,
1253,
1075,
997,
971,
973,
952,
1632,
1194,
818,
808,
728,
745,
696,
599,
572,
523,
484,
509,
431,
443,
403,
509,
351,
328,
298,
255,
243,
205,
193,
170,
126,
150,
123,
85,
82,
69,
37,
20,
9,
2,
2,
4,
1,
3,
4,
0,
0,
3,
2,
1,
2,
0,
2,
0,
5,
1,
1,
0,
0,
3,
2,
0,
0,
2,
1,
1,
0,
1,
1,
1,
0,
0,
0,
0,
0,
0,
0,
0,
0,
1,
0,
0,
0,
0,
0,
0,
0,
1,
0,
0,
0,
0,
0,
0,
0,
0,
0,
1,
0,
0,
0,
0,
0,
0,
0,
0,
0,
0,
0,
0,
0,
0,
0,
0,
0,
0,
0,
0,
0,
0,
0,
0,
0,
0,
0,
0,
0,
0,
0,
0,
0,
0,
0,
0,
0,
0,
0,
0,
0,
0,
0,
0,
0,
0,
0,
0,
0,
0,
0,
0,
0,
0,
0,
0,
0,
0,
0,
0,
0,
0,
0,
0,
0,
0,
0,
0,
0,
0,
0,
0,
0,
0,
0,
0,
0,
0,
0,
0,
0,
0,
0,
0,
0,
0,
0,
0,
0,
0,
0,
0,
0,
0,
0,
0,
0,
0,
0,
0,
0,
0,
0,
0,
0,
0,
0,
0,
0,
0,
0,
0,
0,
0,
0,
0,
0,
0,
0,
0,
0,
0,
0,
0,
0,
0,
0,
#ENDOFDATA   :

File: GMIIIA K251[6][4].msa
#FORMAT      : EMSA/MAS Spectral Data File
#VERSION     : 1.0
#TITLE       : GMIIIA K251[6][all]
#DATE        : 22-SEP-2025
#TIME        : 15:02
#OWNER       : Unknown
#NPOINTS     : 4096
#NCOLUMNS    : 1
#XUNITS      : eV
#YUNITS      : counts
#DATATYPE    : Y
#XPERCHAN    : 9.99778
#OFFSET      : 1.69135
#BEAMKV      : 15
#SIGNALTYPE  : EDS
#ELEVANGLE   : 35
#AZIMANGLE   : 0
#LIVETIME    : 239.973
#REALTIME    : 259.185
#PROBECUR    : 1.21732
#TAUWIND     : 0
#TDEADLYR    : 0
#TACTLYR     : 0.045
#TALWIND     : 0.025
#CHOFFSET    : 0.0
#XLABEL      : Energy (eV)
#YLABEL      : Counts
#XPOSITION   : 7.04616
#YPOSITION   : 2.48686
#ZPOSITION   : 37.36299
#EDSDET      : SD
##SPECIMEN   : GMIIIA K251[6][all]
##D2STDCMP   : K251,(O:23.02),(Al:1.32),(Si:14.02),(Ba:8.96),(Ta:4.09),(Pb:44.1),(Bi:4.48)
##DET_HASH   : 12273538-fd48-a23f-0a19-f1e6fa85caef
##CALIB_HASH : 6abaa72c-aa41-8738-0be9-f592914732f3
##WORKING    : 15.0 mm
##DET_NAME   : EDAX All
##DET_MODE   : MediumLE
#SPECTRUM    :
31,
565,
12468,
9241,
39873,
7932,
7362,
7961,
7961,
8690,
9756,
12799,
50735,
30077,
7268,
6779,
12056,
78861,
18949,
8781,
4791,
4894,
5713,
4705,
4236,
4284,
4179,
4017,
4169,
4009,
3755,
4213,
11589,
3588,
4856,
5507,
3505,
4585,
3108,
3058,
3090,
2932,
2676,
2607,
2533,
2482,
2501,
2379,
2225,
2165,
2156,
2057,
1978,
1910,
1923,
1808,
1786,
1736,
2300,
1707,
1554,
1588,
1414,
1370,
1340,
1340,
1356,
1417,
1159,
1260,
1109,
1079,
971,
926,
968,
1584,
1161,
849,
805,
731,
669,
653,
611,
610,
504,
482,
481,
451,
405,
416,
523,
384,
332,
292,
300,
224,
192,
183,
189,
149,
148,
102,
96,
76,
51,
45,
27,
13,
2,
2,
5,
3,
2,
5,
1,
1,
0,
3,
0,
0,
0,
0,
1,
1,
2,
1,
0,
1,
3,
0,
1,
1,
0,
0,
0,
0,
1,
0,
0,
0,
1,
1,
0,
0,
0,
0,
0,
0,
0,
0,
0,
0,
0,
0,
0,
0,
0,
0,
0,
0,
1,
0,
0,
1,
0,
0,
0,
0,
0,
0,
0,
0,
0,
0,
0,
0,
0,
0,
0,
0,
0,
0,
0,
0,
0,
0,
0,
0,
0,
0,
0,
0,
0,
0,
0,
0,
0,
0,
0,
0,
0,
0,
0,
0,
0,
0,
0,
0,
0,
0,
0,
0,
0,
0,
0,
0,
0,
0,
0,
0,
0,
0,
0,
0,
0,
0,
0,
0,
0,
0,
0,
0,
0,
0,
0,
0,
0,
0,
0,
0,
0,
0,
0,
0,
0,
0,
0,
0,
0,
0,
0,
0,
0,
0,
0,
0,
0,
0,
0,
0,
0,
0,
0,
0,
0,
0,
0,
0,
0,
0,
0,
0,
0,
0,
0,
0,
0,
0,
0,
0,
0,
0,
0,
0,
0,
0,
0,
0,
0,
0,
0,
0,
0,
0,
#ENDOFDATA   :

File: GMIIIA K252[0][4].msa
#FORMAT      : EMSA/MAS Spectral Data File
#VERSION     : 1.0
#TITLE       : GMIIIA K252[0][all]
#DATE        : 22-SEP-2025
#TIME        : 14:48
#OWNER       : Unknown
#NPOINTS     : 4096
#NCOLUMNS    : 1
#XUNITS      : eV
#YUNITS      : counts
#DATATYPE    : Y
#XPERCHAN    : 9.99778
#OFFSET      : 1.69135
#BEAMKV      : 15
#SIGNALTYPE  : EDS
#ELEVANGLE   : 35
#AZIMANGLE   : 0
#LIVETIME    : 239.998
#REALTIME    : 257.128
#PROBECUR    : 1.21732
#TAUWIND     : 0
#TDEADLYR    : 0
#TACTLYR     : 0.045
#TALWIND     : 0.025
#CHOFFSET    : 0.0
#XLABEL      : Energy (eV)
#YLABEL      : Counts
#XPOSITION   : 4.67589
#YPOSITION   : 2.61197
#ZPOSITION   : 37.36299
#EDSDET      : SD
##SPECIMEN   : GMIIIA K252[0][all]
##D2STDCMP   : K252,(O:30.83),(Si:18.7),(Mn:3.16),(Co:3.93),(Cu:3.99),(Zn:8.03),(Ba:31.35)
##DET_HASH   : 12273538-fd48-a23f-0a19-f1e6fa85caef
##CALIB_HASH : 6abaa72c-aa41-8738-0be9-f592914732f3
##WORKING    : 15.0 mm
##DET_NAME   : EDAX All
##DET_MODE   : MediumLE
#SPECTRUM    :
33,
378,
9219,
12322,
79272,
8302,
8715,
26020,
5613,
4963,
5527,
6228,
42558,
21992,
4263,
4372,
4649,
4302,
4248,
4165,
4113,
3877,
3749,
3540,
3440,
3273,
3148,
3139,
3946,
3037,
2899,
4570,
31212,
3035,
7668,
10014,
3112,
6603,
2103,
2683,
2673,
2328,
6125,
2140,
1563,
1586,
1920,
1665,
1397,
2942,
2584,
1220,
1197,
1184,
1291,
1347,
1064,
2162,
1761,
926,
887,
1963,
2838,
955,
939,
766,
702,
723,
977,
805,
627,
597,
523,
549,
534,
480,
497,
405,
441,
386,
348,
359,
373,
330,
283,
274,
232,
230,
248,
203,
171,
173,
190,
176,
147,
129,
127,
109,
97,
86,
82,
56,
39,
31,
26,
18,
16,
4,
0,
3,
1,
0,
2,
3,
0,
0,
2,
0,
1,
1,
0,
1,
0,
0,
0,
0,
1,
1,
1,
0,
1,
0,
0,
1,
2,
0,
1,
0,
0,
0,
0,
0,
1,
0,
0,
0,
0,
0,
0,
0,
0,
0,
1,
0,
0,
0,
0,
0,
0,
0,
0,
0,
0,
0,
0,
0,
0,
0,
0,
0,
0,
0,
0,
0,
0,
0,
0,
0,
0,
0,
0,
0,
0,
0,
0,
0,
0,
0,
0,
0,
0,
0,
0,
0,
0,
0,
0,
0,
0,
0,
0,
0,
0,
0,
0,
0,
0,
0,
0,
0,
0,
0,
0,
0,
0,
0,
0,
0,
0,
0,
0,
0,
0,
0,
0,
0,
0,
0,
0,
0,
0,
0,
0,
0,
0,
0,
0,
0,
0,
0,
0,
0,
0,
0,
0,
0,
0,
0,
0,
0,
0,
0,
0,
0,
0,
0,
0,
0,
0,
0,
0,
0,
0,
0,
0,
0,
0,
0,
0,
0,
0,
0,
0,
0,
0,
0,
0,
0,
0,
0,
0,
0,
0,
0,
0,
0,
0,
0,
0,
0,
0,
0,
0,
0,
#ENDOFDATA   :

File: GMIIIA K252[1][4].msa
#FORMAT      : EMSA/MAS Spectral Data File
#VERSION     : 1.0
#TITLE       : GMIIIA K252[1][all]
#DATE        : 22-SEP-2025
#TIME        : 14:49
#OWNER       : Unknown
#NPOINTS     : 4096
#NCOLUMNS    : 1
#XUNITS      : eV
#YUNITS      : counts
#DATATYPE    : Y
#XPERCHAN    : 9.99778
#OFFSET      : 1.69135
#BEAMKV      : 15
#SIGNALTYPE  : EDS
#ELEVANGLE   : 35
#AZIMANGLE   : 0
#LIVETIME    : 239.9865
#REALTIME    : 257.124
#PROBECUR    : 1.21732
#TAUWIND     : 0
#TDEADLYR    : 0
#TACTLYR     : 0.045
#TALWIND     : 0.025
#CHOFFSET    : 0.0
#XLABEL      : Energy (eV)
#YLABEL      : Counts
#XPOSITION   : 4.68898
#YPOSITION   : 2.61795
#ZPOSITION   : 37.36299
#EDSDET      : SD
##SPECIMEN   : GMIIIA K252[1][all]
##D2STDCMP   : K252,(O:30.83),(Si:18.7),(Mn:3.16),(Co:3.93),(Cu:3.99),(Zn:8.03),(Ba:31.35)
##DET_HASH   : 12273538-fd48-a23f-0a19-f1e6fa85caef
##CALIB_HASH : 6abaa72c-aa41-8738-0be9-f592914732f3
##WORKING    : 15.0 mm
##DET_NAME   : EDAX All
##DET_MODE   : MediumLE
#SPECTRUM    :
32,
423,
9143,
12348,
78882,
8434,
8914,
26054,
5575,
5214,
5610,
6180,
42996,
22088,
4254,
4330,
4794,
4357,
4289,
4251,
4037,
3740,
3869,
3595,
3483,
3376,
3116,
3096,
3870,
3117,
2865,
4673,
31484,
3016,
7663,
9983,
3178,
6619,
2198,
2670,
2821,
2314,
5989,
2040,
1637,
1560,
1917,
1559,
1419,
2954,
2597,
1224,
1219,
1250,
1222,
1274,
1014,
2205,
1739,
1027,
918,
2085,
2907,
911,
976,
765,
723,
730,
999,
780,
630,
622,
569,
529,
525,
462,
456,
420,
405,
396,
371,
345,
334,
328,
296,
285,
279,
252,
194,
190,
192,
172,
183,
143,
162,
130,
121,
113,
94,
82,
73,
60,
49,
35,
22,
20,
13,
8,
1,
1,
1,
0,
3,
1,
0,
0,
1,
0,
0,
1,
0,
0,
0,
1,
2,
0,
0,
0,
0,
0,
1,
0,
1,
2,
0,
1,
1,
1,
1,
0,
0,
0,
0,
0,
0,
0,
0,
0,
0,
0,
0,
0,
0,
1,
0,
0,
0,
0,
0,
0,
0,
0,
0,
0,
0,
0,
0,
0,
0,
0,
0,
0,
0,
0,
0,
0,
0,
0,
0,
0,
0,
0,
0,
0,
0,
0,
0,
0,
0,
0,
0,
0,
0,
0,
0,
0,
0,
0,
0,
0,
0,
0,
0,
0,
0,
0,
0,
0,
0,
0,
0,
0,
0,
0,
0,
0,
0,
0,
0,
0,
0,
0,
0,
0,
0,
0,
0,
0,
0,
0,
0,
0,
0,
0,
0,
0,
0,
0,
0,
0,
0,
0,
0,
0,
0,
0,
0,
0,
0,
0,
0,
0,
0,
0,
0,
0,
0,
0,
0,
0,
0,
0,
0,
0,
0,
0,
0,
0,
0,
0,
0,
0,
0,
0,
0,
0,
0,
0,
0,
0,
0,
0,
0,
0,
0,
0,
0,
0,
0,
0,
0,
0,
0,
0,
#ENDOFDATA   :