Folder: spex_quant/N132962/Quantification/15 keV/GMIIIA (part 17)

File: GMIIIA K1236[4][4].msa
#FORMAT      : EMSA/MAS Spectral Data File
#VERSION     : 1.0
#TITLE       : GMIIIA K1236[4][all]
#DATE        : 22-SEP-2025
#TIME        : 23:09
#OWNER       : Unknown
#NPOINTS     : 4096
#NCOLUMNS    : 1
#XUNITS      : eV
#YUNITS      : counts
#DATATYPE    : Y
#XPERCHAN    : 9.99778
#OFFSET      : 1.69135
#BEAMKV      : 15
#SIGNALTYPE  : EDS
#ELEVANGLE   : 35
#AZIMANGLE   : 0
#LIVETIME    : 239.92
#REALTIME    : 258.858
#PROBECUR    : 1.21388
#TAUWIND     : 0
#TDEADLYR    : 0
#TACTLYR     : 0.045
#TALWIND     : 0.025
#CHOFFSET    : 0.0
#XLABEL      : Energy (eV)
#YLABEL      : Counts
#XPOSITION   : 7.24105
#YPOSITION   : 19.01764
#ZPOSITION   : 37.36299
#EDSDET      : SD
##SPECIMEN   : GMIIIA K1236[4][all]
##D2STDCMP   : K1236,(O:21.27),(Sc:0.65),(Ge:40.95),(Pb:37.13)
##DET_HASH   : 12273538-fd48-a23f-0a19-f1e6fa85caef
##CALIB_HASH : 6abaa72c-aa41-8738-0be9-f592914732f3
##WORKING    : 15.0 mm
##DET_NAME   : EDAX All
##DET_MODE   : MediumLE
#SPECTRUM    :
24,
439,
10952,
8719,
36813,
7748,
8271,
11685,
35771,
53958,
6379,
6558,
7338,
11054,
6305,
6409,
10584,
63689,
12710,
8259,
4743,
5101,
5528,
4599,
4250,
4267,
4258,
4010,
3940,
5217,
3871,
3603,
3927,
3418,
3326,
3308,
3139,
3061,
2985,
2818,
2722,
2690,
2585,
2494,
2433,
2434,
2308,
2194,
2213,
2094,
2019,
1982,
1902,
1857,
1759,
1749,
1640,
1634,
1548,
1520,
1422,
1437,
1335,
1306,
1275,
1249,
1191,
1135,
1071,
1138,
5371,
5311,
1063,
944,
931,
1413,
1068,
791,
1476,
1158,
634,
582,
566,
538,
486,
434,
444,
445,
378,
392,
454,
324,
307,
281,
244,
218,
217,
187,
161,
153,
111,
107,
104,
75,
59,
34,
29,
9,
7,
0,
2,
1,
5,
2,
1,
1,
1,
1,
1,
0,
0,
1,
1,
3,
0,
1,
1,
0,
2,
1,
1,
0,
0,
1,
1,
0,
1,
0,
1,
1,
1,
1,
1,
0,
1,
1,
3,
1,
1,
0,
0,
0,
1,
0,
0,
0,
0,
0,
1,
0,
1,
1,
1,
0,
0,
0,
0,
0,
0,
0,
0,
0,
0,
0,
0,
0,
0,
0,
0,
0,
0,
0,
0,
0,
0,
0,
0,
0,
0,
0,
0,
0,
0,
0,
0,
0,
0,
0,
0,
0,
0,
0,
0,
0,
0,
0,
0,
0,
0,
0,
0,
0,
0,
0,
0,
0,
0,
0,
0,
0,
0,
0,
0,
0,
0,
0,
0,
0,
0,
0,
0,
0,
0,
0,
0,
0,
0,
0,
0,
0,
0,
0,
0,
0,
0,
0,
0,
0,
0,
0,
0,
0,
0,
0,
0,
0,
0,
0,
0,
0,
0,
0,
0,
0,
0,
0,
0,
0,
0,
0,
0,
0,
0,
0,
0,
0,
0,
0,
0,
0,
0,
0,
0,
0,
0,
0,
0,
0,
0,
0,
0,
0,
0,
0,
#ENDOFDATA   :

File: GMIIIA K1236[5][4].msa
#FORMAT      : EMSA/MAS Spectral Data File
#VERSION     : 1.0
#TITLE       : GMIIIA K1236[5][all]
#DATE        : 22-SEP-2025
#TIME        : 23:10
#OWNER       : Unknown
#NPOINTS     : 4096
#NCOLUMNS    : 1
#XUNITS      : eV
#YUNITS      : counts
#DATATYPE    : Y
#XPERCHAN    : 9.99778
#OFFSET      : 1.69135
#BEAMKV      : 15
#SIGNALTYPE  : EDS
#ELEVANGLE   : 35
#AZIMANGLE   : 0
#LIVETIME    : 239.913
#REALTIME    : 258.86
#PROBECUR    : 1.21388
#TAUWIND     : 0
#TDEADLYR    : 0
#TACTLYR     : 0.045
#TALWIND     : 0.025
#CHOFFSET    : 0.0
#XLABEL      : Energy (eV)
#YLABEL      : Counts
#XPOSITION   : 7.20556
#YPOSITION   : 18.96651
#ZPOSITION   : 37.36299
#EDSDET      : SD
##SPECIMEN   : GMIIIA K1236[5][all]
##D2STDCMP   : K1236,(O:21.27),(Sc:0.65),(Ge:40.95),(Pb:37.13)
##DET_HASH   : 12273538-fd48-a23f-0a19-f1e6fa85caef
##CALIB_HASH : 6abaa72c-aa41-8738-0be9-f592914732f3
##WORKING    : 15.0 mm
##DET_NAME   : EDAX All
##DET_MODE   : MediumLE
#SPECTRUM    :
23,
466,
11625,
8718,
36308,
7687,
8207,
11837,
35422,
53163,
6549,
6464,
7070,
10925,
6268,
6592,
10545,
63607,
12667,
8223,
4738,
4938,
5625,
4634,
4422,
4398,
4372,
3990,
4007,
5279,
3800,
3675,
3975,
3462,
3352,
3208,
3201,
3002,
2915,
2866,
2769,
2761,
2653,
2428,
2485,
2368,
2511,
2256,
2233,
2089,
2055,
1916,
1946,
1891,
1878,
1700,
1619,
1651,
1466,
1547,
1509,
1412,
1245,
1242,
1270,
1188,
1207,
1125,
1048,
1167,
5407,
5394,
1002,
856,
949,
1485,
1069,
757,
1381,
1176,
589,
576,
552,
537,
495,
435,
493,
425,
370,
379,
422,
353,
308,
277,
210,
209,
195,
199,
157,
127,
141,
86,
92,
73,
52,
37,
15,
7,
4,
5,
1,
3,
1,
3,
1,
3,
3,
4,
1,
3,
1,
1,
1,
0,
0,
0,
0,
0,
2,
1,
3,
1,
0,
0,
0,
0,
0,
1,
1,
0,
1,
1,
1,
0,
0,
0,
0,
0,
0,
2,
0,
1,
1,
0,
0,
0,
0,
0,
0,
0,
0,
0,
0,
0,
0,
0,
0,
0,
0,
0,
0,
0,
0,
0,
0,
0,
0,
0,
0,
0,
0,
0,
0,
0,
0,
0,
0,
0,
0,
0,
0,
0,
0,
0,
0,
0,
0,
0,
0,
0,
0,
0,
0,
0,
0,
0,
0,
0,
0,
0,
0,
0,
0,
0,
0,
0,
0,
0,
0,
0,
0,
0,
0,
0,
0,
0,
0,
0,
0,
0,
0,
0,
0,
0,
0,
0,
0,
0,
0,
0,
0,
0,
0,
0,
0,
0,
0,
0,
0,
0,
0,
0,
0,
0,
0,
0,
0,
0,
0,
0,
0,
0,
0,
0,
0,
0,
0,
0,
0,
0,
0,
0,
0,
0,
0,
0,
0,
0,
0,
0,
0,
0,
0,
0,
0,
0,
0,
0,
0,
0,
0,
0,
0,
0,
#ENDOFDATA   :

File: GMIIIA K1236[6][4].msa
#FORMAT      : EMSA/MAS Spectral Data File
#VERSION     : 1.0
#TITLE       : GMIIIA K1236[6][all]
#DATE        : 22-SEP-2025
#TIME        : 23:11
#OWNER       : Unknown
#NPOINTS     : 4096
#NCOLUMNS    : 1
#XUNITS      : eV
#YUNITS      : counts
#DATATYPE    : Y
#XPERCHAN    : 9.99778
#OFFSET      : 1.69135
#BEAMKV      : 15
#SIGNALTYPE  : EDS
#ELEVANGLE   : 35
#AZIMANGLE   : 0
#LIVETIME    : 239.962
#REALTIME    : 258.915
#PROBECUR    : 1.21388
#TAUWIND     : 0
#TDEADLYR    : 0
#TACTLYR     : 0.045
#TALWIND     : 0.025
#CHOFFSET    : 0.0
#XLABEL      : Energy (eV)
#YLABEL      : Counts
#XPOSITION   : 7.1724
#YPOSITION   : 18.99652
#ZPOSITION   : 37.36299
#EDSDET      : SD
##SPECIMEN   : GMIIIA K1236[6][all]
##D2STDCMP   : K1236,(O:21.27),(Sc:0.65),(Ge:40.95),(Pb:37.13)
##DET_HASH   : 12273538-fd48-a23f-0a19-f1e6fa85caef
##CALIB_HASH : 6abaa72c-aa41-8738-0be9-f592914732f3
##WORKING    : 15.0 mm
##DET_NAME   : EDAX All
##DET_MODE   : MediumLE
#SPECTRUM    :
19,
439,
11173,
8653,
36837,
7715,
8372,
11578,
35509,
53709,
6274,
6525,
6914,
11090,
6336,
6337,
10495,
63827,
12855,
8348,
4723,
5019,
5587,
4637,
4402,
4382,
4217,
4003,
3868,
5413,
3865,
3582,
3854,
3488,
3387,
3289,
3180,
3079,
2895,
2854,
2749,
2748,
2714,
2575,
2395,
2358,
2429,
2246,
2120,
2140,
2008,
1969,
1872,
1879,
1855,
1678,
1657,
1645,
1587,
1413,
1454,
1420,
1336,
1287,
1186,
1279,
1212,
1106,
1066,
1198,
5297,
5294,
1034,
935,
931,
1525,
1085,
775,
1422,
1149,
613,
611,
549,
552,
488,
465,
446,
423,
400,
383,
424,
367,
295,
263,
248,
220,
188,
190,
140,
164,
125,
77,
86,
75,
43,
41,
23,
6,
4,
3,
1,
6,
2,
1,
4,
0,
1,
1,
1,
0,
3,
1,
2,
1,
1,
0,
1,
2,
1,
1,
1,
0,
1,
1,
0,
1,
0,
0,
1,
0,
1,
2,
0,
1,
0,
0,
0,
0,
0,
0,
0,
0,
0,
0,
1,
0,
0,
0,
0,
0,
0,
0,
0,
0,
0,
0,
0,
0,
0,
0,
1,
0,
0,
0,
0,
0,
0,
0,
0,
0,
0,
0,
0,
0,
0,
0,
0,
0,
0,
0,
0,
0,
0,
0,
0,
0,
0,
0,
0,
0,
0,
0,
0,
0,
0,
0,
0,
0,
0,
0,
0,
0,
0,
0,
0,
0,
0,
0,
0,
0,
0,
0,
0,
0,
0,
0,
0,
0,
0,
0,
0,
0,
0,
0,
0,
0,
0,
0,
0,
0,
0,
0,
0,
0,
0,
0,
0,
0,
0,
0,
0,
0,
0,
0,
0,
0,
0,
0,
0,
0,
0,
0,
0,
0,
0,
0,
0,
0,
0,
0,
0,
0,
0,
0,
0,
0,
0,
0,
0,
0,
0,
0,
0,
0,
0,
0,
0,
0,
0,
0,
0,
0,
0,
0,
#ENDOFDATA   :

File: GMIIIA K1236[7][4].msa
#FORMAT      : EMSA/MAS Spectral Data File
#VERSION     : 1.0
#TITLE       : GMIIIA K1236[7][all]
#DATE        : 22-SEP-2025
#TIME        : 23:12
#OWNER       : Unknown
#NPOINTS     : 4096
#NCOLUMNS    : 1
#XUNITS      : eV
#YUNITS      : counts
#DATATYPE    : Y
#XPERCHAN    : 9.99778
#OFFSET      : 1.69135
#BEAMKV      : 15
#SIGNALTYPE  : EDS
#ELEVANGLE   : 35
#AZIMANGLE   : 0
#LIVETIME    : 239.898
#REALTIME    : 258.862
#PROBECUR    : 1.21388
#TAUWIND     : 0
#TDEADLYR    : 0
#TACTLYR     : 0.045
#TALWIND     : 0.025
#CHOFFSET    : 0.0
#XLABEL      : Energy (eV)
#YLABEL      : Counts
#XPOSITION   : 7.15166
#YPOSITION   : 18.9369
#ZPOSITION   : 37.36299
#EDSDET      : SD
##SPECIMEN   : GMIIIA K1236[7][all]
##D2STDCMP   : K1236,(O:21.27),(Sc:0.65),(Ge:40.95),(Pb:37.13)
##DET_HASH   : 12273538-fd48-a23f-0a19-f1e6fa85caef
##CALIB_HASH : 6abaa72c-aa41-8738-0be9-f592914732f3
##WORKING    : 15.0 mm
##DET_NAME   : EDAX All
##DET_MODE   : MediumLE
#SPECTRUM    :
28,
483,
11180,
8888,
36134,
7619,
8097,
11639,
35847,
53230,
6392,
6638,
7011,
10988,
6377,
6471,
10477,
63708,
12667,
8282,
4631,
4949,
5556,
4644,
4370,
4466,
4298,
4074,
3893,
5342,
3842,
3568,
3920,
3458,
3437,
3257,
3125,
3097,
2924,
2870,
2829,
2683,
2601,
2482,
2491,
2488,
2452,
2303,
2158,
2106,
2062,
1978,
1852,
1860,
1731,
1742,
1726,
1601,
1553,
1542,
1416,
1379,
1426,
1303,
1261,
1169,
1197,
1145,
1109,
1205,
5356,
5187,
1023,
933,
908,
1479,
1071,
789,
1469,
1153,
667,
603,
537,
481,
480,
438,
454,
438,
384,
388,
438,
330,
287,
267,
246,
213,
180,
173,
158,
126,
125,
94,
87,
82,
59,
42,
19,
6,
2,
1,
4,
4,
1,
0,
0,
3,
2,
6,
3,
1,
2,
2,
1,
0,
0,
1,
0,
2,
1,
1,
1,
0,
1,
1,
1,
1,
0,
0,
1,
1,
0,
2,
0,
0,
1,
0,
1,
1,
0,
1,
0,
0,
0,
0,
0,
1,
1,
0,
0,
0,
0,
0,
0,
0,
0,
0,
0,
0,
0,
0,
0,
0,
0,
0,
0,
0,
0,
0,
0,
0,
0,
0,
0,
0,
0,
0,
0,
0,
0,
0,
0,
0,
0,
0,
0,
0,
0,
0,
0,
0,
0,
0,
0,
0,
0,
0,
0,
0,
0,
0,
0,
0,
0,
0,
0,
0,
0,
0,
0,
0,
0,
0,
0,
0,
0,
0,
0,
0,
0,
0,
0,
0,
0,
0,
0,
0,
0,
0,
0,
0,
0,
0,
0,
0,
0,
0,
0,
0,
0,
0,
0,
0,
0,
0,
0,
0,
0,
0,
0,
0,
0,
0,
0,
0,
0,
0,
0,
0,
0,
0,
0,
0,
0,
0,
0,
0,
0,
0,
0,
0,
0,
0,
0,
0,
0,
0,
0,
0,
0,
0,
0,
0,
0,
0,
#ENDOFDATA   :

File: GMIIIA K1236[8][4].msa
#FORMAT      : EMSA/MAS Spectral Data File
#VERSION     : 1.0
#TITLE       : GMIIIA K1236[8][all]
#DATE        : 22-SEP-2025
#TIME        : 23:13
#OWNER       : Unknown
#NPOINTS     : 4096
#NCOLUMNS    : 1
#XUNITS      : eV
#YUNITS      : counts
#DATATYPE    : Y
#XPERCHAN    : 9.99778
#OFFSET      : 1.69135
#BEAMKV      : 15
#SIGNALTYPE  : EDS
#ELEVANGLE   : 35
#AZIMANGLE   : 0
#LIVETIME    : 239.928
#REALTIME    : 258.881
#PROBECUR    : 1.21388
#TAUWIND     : 0
#TDEADLYR    : 0
#TACTLYR     : 0.045
#TALWIND     : 0.025
#CHOFFSET    : 0.0
#XLABEL      : Energy (eV)
#YLABEL      : Counts
#XPOSITION   : 7.24035
#YPOSITION   : 18.97754
#ZPOSITION   : 37.36299
#EDSDET      : SD
##SPECIMEN   : GMIIIA K1236[8][all]
##D2STDCMP   : K1236,(O:21.27),(Sc:0.65),(Ge:40.95),(Pb:37.13)
##DET_HASH   : 12273538-fd48-a23f-0a19-f1e6fa85caef
##CALIB_HASH : 6abaa72c-aa41-8738-0be9-f592914732f3
##WORKING    : 15.0 mm
##DET_NAME   : EDAX All
##DET_MODE   : MediumLE
#SPECTRUM    :
29,
487,
11109,
8898,
36534,
7748,
8160,
11752,
35724,
53793,
6252,
6626,
7059,
10872,
6348,
6562,
10406,
63421,
12863,
8419,
4837,
4890,
5548,
4539,
4367,
4558,
4342,
4078,
3852,
5341,
3805,
3631,
3774,
3410,
3339,
3313,
3095,
3080,
3062,
2889,
2736,
2735,
2580,
2594,
2519,
2439,
2355,
2245,
2135,
2151,
2111,
2027,
1924,
1904,
1795,
1744,
1630,
1652,
1570,
1487,
1495,
1374,
1332,
1327,
1301,
1281,
1192,
1100,
1107,
1185,
5300,
5187,
1015,
876,
937,
1432,
1053,
797,
1422,
1145,
624,
548,
527,
499,
491,
458,
481,
425,
406,
385,
449,
339,
281,
296,
229,
204,
178,
177,
145,
139,
116,
112,
91,
86,
63,
49,
20,
7,
6,
2,
3,
3,
1,
0,
0,
0,
0,
0,
1,
2,
2,
0,
0,
3,
3,
1,
2,
2,
2,
2,
0,
0,
0,
0,
0,
0,
0,
0,
1,
0,
0,
1,
0,
0,
0,
0,
0,
0,
1,
1,
0,
0,
0,
1,
0,
0,
0,
0,
0,
0,
0,
0,
1,
0,
0,
0,
0,
0,
0,
0,
0,
0,
0,
0,
0,
0,
0,
0,
0,
0,
0,
0,
0,
0,
0,
0,
0,
0,
0,
0,
0,
0,
0,
0,
0,
0,
0,
0,
0,
0,
0,
0,
0,
0,
0,
0,
0,
0,
0,
0,
0,
0,
0,
0,
0,
0,
0,
0,
0,
0,
0,
0,
0,
0,
0,
0,
0,
0,
0,
0,
0,
0,
0,
0,
0,
0,
0,
0,
0,
0,
0,
0,
0,
0,
0,
0,
0,
0,
0,
0,
0,
0,
0,
0,
0,
0,
0,
0,
0,
0,
0,
0,
0,
0,
0,
0,
0,
0,
0,
0,
0,
0,
0,
0,
0,
0,
0,
0,
0,
0,
0,
0,
0,
0,
0,
0,
0,
0,
0,
0,
0,
0,
0,
0,
#ENDOFDATA   :