Folder: spex_quant/N132962/Quantification/15 keV/GMIIIA (part 12)

File: GMIIIA K1070[3][4].msa
#FORMAT      : EMSA/MAS Spectral Data File
#VERSION     : 1.0
#TITLE       : GMIIIA K1070[3][all]
#DATE        : 22-SEP-2025
#TIME        : 21:03
#OWNER       : Unknown
#NPOINTS     : 4096
#NCOLUMNS    : 1
#XUNITS      : eV
#YUNITS      : counts
#DATATYPE    : Y
#XPERCHAN    : 9.99778
#OFFSET      : 1.69135
#BEAMKV      : 15
#SIGNALTYPE  : EDS
#ELEVANGLE   : 35
#AZIMANGLE   : 0
#LIVETIME    : 239.984
#REALTIME    : 256.167
#PROBECUR    : 1.21822
#TAUWIND     : 0
#TDEADLYR    : 0
#TACTLYR     : 0.045
#TALWIND     : 0.025
#CHOFFSET    : 0.0
#XLABEL      : Energy (eV)
#YLABEL      : Counts
#XPOSITION   : 2.37856
#YPOSITION   : 15.67869
#ZPOSITION   : 37.36299
#EDSDET      : SD
##SPECIMEN   : GMIIIA K1070[3][all]
##D2STDCMP   : K1070,(O:34.31),(Mg:7.54),(Si:18.7),(Ca:8.93),(Zn:10.04),(Ba:11.2),(Pb:9.28)
##DET_HASH   : 12273538-fd48-a23f-0a19-f1e6fa85caef
##CALIB_HASH : 6abaa72c-aa41-8738-0be9-f592914732f3
##WORKING    : 15.0 mm
##DET_NAME   : EDAX All
##DET_MODE   : MediumLE
#SPECTRUM    :
32,
280,
10632,
8600,
57659,
5107,
6695,
29370,
6640,
52927,
5285,
6119,
43613,
23128,
4365,
3977,
5145,
16304,
5303,
4273,
3381,
3421,
3472,
3065,
2883,
3156,
18484,
7632,
3482,
4849,
2343,
2760,
11673,
2196,
3684,
4423,
2192,
3213,
1695,
1938,
1960,
1746,
1559,
1442,
1361,
1360,
1264,
1243,
1180,
1186,
1149,
1046,
1041,
1044,
936,
913,
854,
831,
815,
791,
729,
2144,
3131,
744,
604,
655,
598,
551,
894,
742,
536,
462,
449,
453,
425,
538,
438,
348,
322,
334,
298,
266,
302,
233,
242,
230,
214,
195,
186,
162,
169,
132,
129,
120,
110,
103,
96,
87,
82,
58,
52,
50,
48,
40,
26,
11,
8,
1,
1,
1,
2,
0,
0,
1,
0,
2,
2,
0,
1,
1,
1,
1,
0,
0,
1,
0,
0,
1,
0,
0,
0,
0,
1,
0,
1,
0,
0,
0,
0,
0,
0,
0,
0,
0,
1,
0,
0,
0,
0,
0,
0,
0,
0,
0,
0,
0,
0,
0,
0,
0,
0,
0,
0,
0,
0,
0,
0,
0,
0,
0,
0,
0,
0,
0,
0,
0,
0,
0,
0,
0,
0,
0,
0,
0,
0,
0,
0,
0,
0,
0,
0,
0,
0,
0,
0,
0,
0,
0,
0,
0,
0,
0,
0,
0,
0,
0,
0,
0,
0,
0,
0,
0,
0,
0,
0,
0,
0,
0,
0,
0,
0,
0,
0,
0,
0,
0,
0,
0,
0,
0,
0,
0,
0,
0,
0,
0,
0,
0,
0,
0,
0,
0,
0,
0,
0,
0,
0,
0,
0,
0,
0,
0,
0,
0,
0,
0,
0,
0,
0,
0,
0,
0,
0,
0,
0,
0,
0,
0,
0,
0,
0,
0,
0,
0,
0,
0,
0,
0,
0,
0,
0,
0,
0,
0,
0,
0,
0,
0,
0,
0,
0,
0,
0,
0,
#ENDOFDATA   :

File: GMIIIA K1070[4][4].msa
#FORMAT      : EMSA/MAS Spectral Data File
#VERSION     : 1.0
#TITLE       : GMIIIA K1070[4][all]
#DATE        : 22-SEP-2025
#TIME        : 21:04
#OWNER       : Unknown
#NPOINTS     : 4096
#NCOLUMNS    : 1
#XUNITS      : eV
#YUNITS      : counts
#DATATYPE    : Y
#XPERCHAN    : 9.99778
#OFFSET      : 1.69135
#BEAMKV      : 15
#SIGNALTYPE  : EDS
#ELEVANGLE   : 35
#AZIMANGLE   : 0
#LIVETIME    : 239.9935
#REALTIME    : 256.164
#PROBECUR    : 1.21822
#TAUWIND     : 0
#TDEADLYR    : 0
#TACTLYR     : 0.045
#TALWIND     : 0.025
#CHOFFSET    : 0.0
#XLABEL      : Energy (eV)
#YLABEL      : Counts
#XPOSITION   : 2.41755
#YPOSITION   : 15.69476
#ZPOSITION   : 37.36299
#EDSDET      : SD
##SPECIMEN   : GMIIIA K1070[4][all]
##D2STDCMP   : K1070,(O:34.31),(Mg:7.54),(Si:18.7),(Ca:8.93),(Zn:10.04),(Ba:11.2),(Pb:9.28)
##DET_HASH   : 12273538-fd48-a23f-0a19-f1e6fa85caef
##CALIB_HASH : 6abaa72c-aa41-8738-0be9-f592914732f3
##WORKING    : 15.0 mm
##DET_NAME   : EDAX All
##DET_MODE   : MediumLE
#SPECTRUM    :
21,
285,
10631,
8680,
56939,
5277,
6466,
29288,
6478,
52482,
5320,
5834,
44088,
23454,
4371,
4002,
5197,
16423,
5191,
4350,
3450,
3453,
3434,
3075,
3034,
3050,
18499,
7591,
3370,
4690,
2283,
2863,
11576,
2141,
3680,
4573,
2093,
3160,
1756,
1954,
1885,
1637,
1512,
1429,
1368,
1332,
1256,
1232,
1185,
1109,
1125,
1101,
972,
961,
956,
910,
900,
846,
808,
784,
736,
2129,
2991,
740,
652,
655,
618,
568,
868,
719,
476,
524,
485,
456,
426,
523,
477,
356,
368,
338,
312,
272,
264,
227,
219,
230,
201,
218,
193,
187,
167,
165,
108,
116,
110,
113,
91,
80,
82,
67,
58,
53,
41,
28,
23,
15,
9,
2,
1,
3,
0,
0,
1,
0,
1,
2,
0,
0,
1,
1,
1,
0,
1,
1,
0,
0,
0,
1,
1,
0,
0,
0,
0,
0,
0,
0,
0,
1,
0,
0,
0,
0,
0,
0,
0,
0,
0,
0,
0,
0,
1,
0,
0,
0,
0,
0,
0,
0,
0,
0,
0,
0,
0,
0,
0,
0,
0,
0,
0,
0,
0,
0,
0,
0,
0,
0,
0,
0,
0,
0,
0,
0,
0,
0,
0,
0,
0,
0,
0,
0,
0,
0,
0,
0,
0,
0,
0,
0,
0,
0,
0,
0,
0,
0,
0,
0,
0,
0,
0,
0,
0,
0,
0,
0,
0,
0,
0,
0,
0,
0,
0,
0,
0,
0,
0,
0,
0,
0,
0,
0,
0,
0,
0,
0,
0,
0,
0,
0,
0,
0,
0,
0,
0,
0,
0,
0,
0,
0,
0,
0,
0,
0,
0,
0,
0,
0,
0,
0,
0,
0,
0,
0,
0,
0,
0,
0,
0,
0,
0,
0,
0,
0,
0,
0,
0,
0,
0,
0,
0,
0,
0,
0,
0,
0,
0,
0,
0,
0,
0,
0,
0,
0,
0,
0,
#ENDOFDATA   :

File: GMIIIA K1070[5][4].msa
#FORMAT      : EMSA/MAS Spectral Data File
#VERSION     : 1.0
#TITLE       : GMIIIA K1070[5][all]
#DATE        : 22-SEP-2025
#TIME        : 21:05
#OWNER       : Unknown
#NPOINTS     : 4096
#NCOLUMNS    : 1
#XUNITS      : eV
#YUNITS      : counts
#DATATYPE    : Y
#XPERCHAN    : 9.99778
#OFFSET      : 1.69135
#BEAMKV      : 15
#SIGNALTYPE  : EDS
#ELEVANGLE   : 35
#AZIMANGLE   : 0
#LIVETIME    : 239.994
#REALTIME    : 256.17
#PROBECUR    : 1.21822
#TAUWIND     : 0
#TDEADLYR    : 0
#TACTLYR     : 0.045
#TALWIND     : 0.025
#CHOFFSET    : 0.0
#XLABEL      : Energy (eV)
#YLABEL      : Counts
#XPOSITION   : 2.42324
#YPOSITION   : 15.71432
#ZPOSITION   : 37.36299
#EDSDET      : SD
##SPECIMEN   : GMIIIA K1070[5][all]
##D2STDCMP   : K1070,(O:34.31),(Mg:7.54),(Si:18.7),(Ca:8.93),(Zn:10.04),(Ba:11.2),(Pb:9.28)
##DET_HASH   : 12273538-fd48-a23f-0a19-f1e6fa85caef
##CALIB_HASH : 6abaa72c-aa41-8738-0be9-f592914732f3
##WORKING    : 15.0 mm
##DET_NAME   : EDAX All
##DET_MODE   : MediumLE
#SPECTRUM    :
23,
285,
10381,
8604,
57576,
5161,
6469,
29161,
6370,
52690,
5308,
5985,
44087,
23182,
4341,
3887,
5086,
16436,
5275,
4259,
3356,
3358,
3367,
3005,
2934,
3064,
18491,
7777,
3418,
4869,
2367,
2833,
11483,
2170,
3762,
4532,
2089,
3229,
1743,
1864,
1897,
1588,
1578,
1413,
1361,
1285,
1323,
1238,
1178,
1101,
1070,
1081,
1015,
1030,
878,
884,
864,
832,
818,
764,
810,
2079,
3158,
749,
660,
669,
598,
595,
892,
659,
544,
481,
405,
403,
416,
475,
422,
367,
379,
298,
324,
320,
276,
237,
244,
232,
222,
192,
190,
209,
180,
146,
144,
122,
106,
110,
92,
76,
62,
47,
58,
37,
51,
37,
16,
17,
11,
2,
2,
1,
0,
0,
1,
2,
0,
0,
0,
0,
0,
1,
0,
0,
0,
0,
0,
0,
0,
0,
0,
0,
0,
0,
0,
0,
0,
0,
1,
0,
0,
0,
0,
0,
0,
0,
0,
0,
0,
0,
0,
0,
0,
0,
0,
0,
0,
0,
0,
0,
0,
0,
0,
0,
0,
0,
0,
0,
0,
0,
0,
0,
0,
0,
0,
0,
0,
0,
0,
0,
0,
0,
0,
0,
0,
0,
0,
0,
0,
0,
0,
0,
0,
0,
0,
0,
0,
0,
0,
0,
0,
0,
0,
0,
0,
0,
0,
0,
0,
0,
0,
0,
0,
0,
0,
0,
0,
0,
0,
0,
0,
0,
0,
0,
0,
0,
0,
0,
0,
0,
0,
0,
0,
0,
0,
0,
0,
0,
0,
0,
0,
0,
0,
0,
0,
0,
0,
0,
0,
0,
0,
0,
0,
0,
0,
0,
0,
0,
0,
0,
0,
0,
0,
0,
0,
0,
0,
0,
0,
0,
0,
0,
0,
0,
0,
0,
0,
0,
0,
0,
0,
0,
0,
0,
0,
0,
0,
0,
0,
0,
0,
0,
0,
0,
0,
0,
#ENDOFDATA   :

File: GMIIIA K1070[6][4].msa
#FORMAT      : EMSA/MAS Spectral Data File
#VERSION     : 1.0
#TITLE       : GMIIIA K1070[6][all]
#DATE        : 22-SEP-2025
#TIME        : 21:07
#OWNER       : Unknown
#NPOINTS     : 4096
#NCOLUMNS    : 1
#XUNITS      : eV
#YUNITS      : counts
#DATATYPE    : Y
#XPERCHAN    : 9.99778
#OFFSET      : 1.69135
#BEAMKV      : 15
#SIGNALTYPE  : EDS
#ELEVANGLE   : 35
#AZIMANGLE   : 0
#LIVETIME    : 239.978
#REALTIME    : 256.165
#PROBECUR    : 1.21822
#TAUWIND     : 0
#TDEADLYR    : 0
#TACTLYR     : 0.045
#TALWIND     : 0.025
#CHOFFSET    : 0.0
#XLABEL      : Energy (eV)
#YLABEL      : Counts
#XPOSITION   : 2.35497
#YPOSITION   : 15.62999
#ZPOSITION   : 37.36299
#EDSDET      : SD
##SPECIMEN   : GMIIIA K1070[6][all]
##D2STDCMP   : K1070,(O:34.31),(Mg:7.54),(Si:18.7),(Ca:8.93),(Zn:10.04),(Ba:11.2),(Pb:9.28)
##DET_HASH   : 12273538-fd48-a23f-0a19-f1e6fa85caef
##CALIB_HASH : 6abaa72c-aa41-8738-0be9-f592914732f3
##WORKING    : 15.0 mm
##DET_NAME   : EDAX All
##DET_MODE   : MediumLE
#SPECTRUM    :
33,
321,
10463,
8840,
57810,
5152,
6565,
29531,
6616,
52550,
5321,
5784,
44248,
23424,
4395,
3926,
5216,
16548,
5220,
4430,
3454,
3369,
3297,
3063,
2923,
3038,
18300,
7672,
3396,
4831,
2328,
2780,
11559,
2197,
3747,
4339,
2147,
3228,
1720,
1904,
1860,
1671,
1545,
1415,
1351,
1322,
1364,
1251,
1175,
1108,
1084,
1052,
1017,
1034,
975,
909,
873,
819,
828,
801,
751,
2225,
3071,
665,
685,
632,
644,
610,
901,
721,
510,
512,
461,
420,
444,
510,
429,
378,
341,
344,
302,
289,
266,
239,
237,
242,
223,
203,
190,
179,
162,
147,
120,
141,
122,
95,
81,
72,
69,
58,
52,
47,
29,
33,
35,
20,
6,
1,
1,
1,
0,
0,
0,
0,
1,
0,
0,
0,
0,
3,
0,
1,
1,
2,
0,
1,
0,
0,
0,
0,
1,
0,
0,
0,
0,
0,
2,
1,
0,
0,
0,
0,
0,
1,
0,
0,
0,
0,
0,
1,
0,
0,
0,
0,
0,
0,
0,
0,
0,
0,
0,
0,
0,
0,
0,
0,
0,
0,
0,
0,
0,
0,
0,
0,
0,
0,
0,
0,
0,
0,
0,
0,
0,
0,
0,
0,
0,
0,
0,
0,
0,
0,
0,
0,
0,
0,
0,
0,
0,
0,
0,
0,
0,
0,
0,
0,
0,
0,
0,
0,
0,
0,
0,
0,
0,
0,
0,
0,
0,
0,
0,
0,
0,
0,
0,
0,
0,
0,
0,
0,
0,
0,
0,
0,
0,
0,
0,
0,
0,
0,
0,
0,
0,
0,
0,
0,
0,
0,
0,
0,
0,
0,
0,
0,
0,
0,
0,
0,
0,
0,
0,
0,
0,
0,
0,
0,
0,
0,
0,
0,
0,
0,
0,
0,
0,
0,
0,
0,
0,
0,
0,
0,
0,
0,
0,
0,
0,
0,
0,
0,
0,
0,
0,
0,
#ENDOFDATA   :

File: GMIIIA K1070[7][4].msa
#FORMAT      : EMSA/MAS Spectral Data File
#VERSION     : 1.0
#TITLE       : GMIIIA K1070[7][all]
#DATE        : 22-SEP-2025
#TIME        : 21:08
#OWNER       : Unknown
#NPOINTS     : 4096
#NCOLUMNS    : 1
#XUNITS      : eV
#YUNITS      : counts
#DATATYPE    : Y
#XPERCHAN    : 9.99778
#OFFSET      : 1.69135
#BEAMKV      : 15
#SIGNALTYPE  : EDS
#ELEVANGLE   : 35
#AZIMANGLE   : 0
#LIVETIME    : 239.982
#REALTIME    : 256.1653
#PROBECUR    : 1.21822
#TAUWIND     : 0
#TDEADLYR    : 0
#TACTLYR     : 0.045
#TALWIND     : 0.025
#CHOFFSET    : 0.0
#XLABEL      : Energy (eV)
#YLABEL      : Counts
#XPOSITION   : 2.44658
#YPOSITION   : 15.70602
#ZPOSITION   : 37.36299
#EDSDET      : SD
##SPECIMEN   : GMIIIA K1070[7][all]
##D2STDCMP   : K1070,(O:34.31),(Mg:7.54),(Si:18.7),(Ca:8.93),(Zn:10.04),(Ba:11.2),(Pb:9.28)
##DET_HASH   : 12273538-fd48-a23f-0a19-f1e6fa85caef
##CALIB_HASH : 6abaa72c-aa41-8738-0be9-f592914732f3
##WORKING    : 15.0 mm
##DET_NAME   : EDAX All
##DET_MODE   : MediumLE
#SPECTRUM    :
24,
313,
10482,
8640,
57242,
5286,
6601,
29592,
6574,
52756,
5242,
5920,
43964,
23088,
4287,
3998,
5281,
16397,
5305,
4365,
3274,
3186,
3472,
3015,
2884,
3081,
18525,
7696,
3339,
4833,
2344,
2845,
11394,
2232,
3669,
4459,
2176,
3281,
1746,
2007,
1834,
1685,
1571,
1411,
1325,
1368,
1365,
1252,
1173,
1109,
1155,
1104,
1057,
971,
993,
894,
843,
826,
808,
754,
762,
2148,
3207,
768,
624,
643,
591,
616,
893,
747,
559,
460,
465,
435,
451,
521,
467,
368,
350,
334,
316,
270,
239,
233,
226,
240,
217,
217,
180,
165,
166,
159,
124,
117,
101,
88,
100,
88,
62,
67,
40,
60,
46,
31,
23,
15,
5,
4,
1,
0,
2,
2,
0,
0,
0,
0,
0,
0,
0,
1,
2,
0,
1,
0,
0,
0,
0,
0,
0,
0,
0,
0,
0,
0,
0,
0,
0,
0,
0,
0,
1,
0,
0,
0,
0,
0,
0,
1,
0,
0,
0,
0,
0,
0,
0,
0,
0,
0,
0,
0,
0,
0,
0,
0,
0,
0,
0,
0,
0,
0,
0,
0,
0,
0,
0,
0,
0,
0,
0,
0,
0,
0,
0,
0,
0,
0,
0,
0,
0,
0,
0,
0,
0,
0,
0,
0,
0,
0,
0,
0,
0,
0,
0,
0,
0,
0,
0,
0,
0,
0,
0,
0,
0,
0,
0,
0,
0,
0,
0,
0,
0,
0,
0,
0,
0,
0,
0,
0,
0,
0,
0,
0,
0,
0,
0,
0,
0,
0,
0,
0,
0,
0,
0,
0,
0,
0,
0,
0,
0,
0,
0,
0,
0,
0,
0,
0,
0,
0,
0,
0,
0,
0,
0,
0,
0,
0,
0,
0,
0,
0,
0,
0,
0,
0,
0,
0,
0,
0,
0,
0,
0,
0,
0,
0,
0,
0,
0,
0,
0,
0,
0,
0,
0,
0,
#ENDOFDATA   :

File: GMIIIA K1070[8][4].msa
#FORMAT      : EMSA/MAS Spectral Data File
#VERSION     : 1.0
#TITLE       : GMIIIA K1070[8][all]
#DATE        : 22-SEP-2025
#TIME        : 21:09
#OWNER       : Unknown
#NPOINTS     : 4096
#NCOLUMNS    : 1
#XUNITS      : eV
#YUNITS      : counts
#DATATYPE    : Y
#XPERCHAN    : 9.99778
#OFFSET      : 1.69135
#BEAMKV      : 15
#SIGNALTYPE  : EDS
#ELEVANGLE   : 35
#AZIMANGLE   : 0
#LIVETIME    : 240.036
#REALTIME    : 256.2368
#PROBECUR    : 1.21822
#TAUWIND     : 0
#TDEADLYR    : 0
#TACTLYR     : 0.045
#TALWIND     : 0.025
#CHOFFSET    : 0.0
#XLABEL      : Energy (eV)
#YLABEL      : Counts
#XPOSITION   : 2.27295
#YPOSITION   : 15.71129
#ZPOSITION   : 37.36299
#EDSDET      : SD
##SPECIMEN   : GMIIIA K1070[8][all]
##D2STDCMP   : K1070,(O:34.31),(Mg:7.54),(Si:18.7),(Ca:8.93),(Zn:10.04),(Ba:11.2),(Pb:9.28)
##DET_HASH   : 12273538-fd48-a23f-0a19-f1e6fa85caef
##CALIB_HASH : 6abaa72c-aa41-8738-0be9-f592914732f3
##WORKING    : 15.0 mm
##DET_NAME   : EDAX All
##DET_MODE   : MediumLE
#SPECTRUM    :
30,
295,
10386,
8711,
57227,
5236,
6591,
29120,
6532,
52718,
5281,
6018,
44118,
23448,
4306,
4000,
5097,
16198,
5228,
4340,
3333,
3238,
3450,
3046,
2969,
3096,
18161,
7709,
3462,
4816,
2331,
2759,
11392,
2242,
3770,
4483,
2135,
3210,
1727,
1926,
1933,
1642,
1578,
1473,
1346,
1371,
1341,
1208,
1189,
1121,
1121,
1032,
993,
980,
932,
884,
871,
856,
809,
779,
772,
2112,
3089,
745,
638,
636,
607,
626,
930,
686,
481,
431,
469,
444,
456,
520,
431,
346,
354,
314,
292,
296,
260,
281,
224,
198,
254,
185,
186,
186,
177,
151,
138,
118,
125,
137,
71,
92,
57,
65,
49,
40,
33,
34,
22,
12,
7,
1,
0,
0,
3,
1,
2,
1,
0,
0,
1,
0,
0,
1,
1,
1,
0,
0,
0,
1,
0,
0,
0,
0,
0,
0,
0,
1,
0,
1,
0,
0,
1,
1,
0,
0,
0,
0,
1,
0,
0,
0,
0,
0,
1,
0,
0,
0,
0,
0,
0,
0,
0,
0,
0,
0,
0,
0,
0,
0,
0,
0,
0,
0,
0,
0,
0,
0,
0,
0,
0,
0,
0,
0,
0,
0,
0,
0,
0,
0,
0,
0,
0,
0,
0,
0,
0,
0,
0,
0,
0,
0,
0,
0,
0,
0,
0,
0,
0,
0,
0,
0,
0,
0,
0,
0,
0,
0,
0,
0,
0,
0,
0,
0,
0,
0,
0,
0,
0,
0,
0,
0,
0,
0,
0,
0,
0,
0,
0,
0,
0,
0,
0,
0,
0,
0,
0,
0,
0,
0,
0,
0,
0,
0,
0,
0,
0,
0,
0,
0,
0,
0,
0,
0,
0,
0,
0,
0,
0,
0,
0,
0,
0,
0,
0,
0,
0,
0,
0,
0,
0,
0,
0,
0,
0,
0,
0,
0,
0,
0,
0,
0,
0,
0,
0,
0,
0,
0,
#ENDOFDATA   :

File: GMIIIA K1080[0][4].msa
#FORMAT      : EMSA/MAS Spectral Data File
#VERSION     : 1.0
#TITLE       : GMIIIA K1080[0][all]
#DATE        : 22-SEP-2025
#TIME        : 20:49
#OWNER       : Unknown
#NPOINTS     : 4096
#NCOLUMNS    : 1
#XUNITS      : eV
#YUNITS      : counts
#DATATYPE    : Y
#XPERCHAN    : 9.99778
#OFFSET      : 1.69135
#BEAMKV      : 15
#SIGNALTYPE  : EDS
#ELEVANGLE   : 35
#AZIMANGLE   : 0
#LIVETIME    : 239.941
#REALTIME    : 255.336
#PROBECUR    : 1.2178
#TAUWIND     : 0
#TDEADLYR    : 0
#TACTLYR     : 0.045
#TALWIND     : 0.025
#CHOFFSET    : 0.0
#XLABEL      : Energy (eV)
#YLABEL      : Counts
#XPOSITION   : 0.4078
#YPOSITION   : 15.7569
#ZPOSITION   : 37.36299
#EDSDET      : SD
##SPECIMEN   : GMIIIA K1080[0][all]
##D2STDCMP   : K1080,(Li:2.79),(B:0.62),(O:41.65),(Mg:1.21),(Al:7.94),(Si:18.7),(Ca:10.72),(Ti:1.2),(Sr:12.68),(Zr:0.74),(Lu:1.76)
##DET_HASH   : 12273538-fd48-a23f-0a19-f1e6fa85caef
##CALIB_HASH : 6abaa72c-aa41-8738-0be9-f592914732f3
##WORKING    : 15.0 mm
##DET_NAME   : EDAX All
##DET_MODE   : MediumLE
#SPECTRUM    :
21,
301,
8437,
7681,
54457,
3626,
4252,
4950,
5408,
15699,
9845,
31634,
48241,
66961,
6387,
4103,
3551,
2900,
2774,
2673,
2537,
2531,
2418,
2421,
2261,
2545,
20548,
7826,
2666,
4475,
1789,
1656,
3751,
1717,
1554,
1733,
1393,
1346,
1291,
1293,
1202,
1109,
1052,
1007,
994,
960,
890,
890,
903,
813,
804,
731,
708,
707,
818,
920,
630,
607,
546,
553,
507,
507,
583,
520,
486,
446,
440,
393,
362,
366,
314,
341,
308,
262,
297,
249,
262,
250,
190,
210,
185,
169,
171,
188,
153,
147,
128,
124,
118,
94,
94,
89,
93,
70,
54,
54,
58,
46,
46,
43,
30,
21,
25,
25,
12,
7,
9,
2,
0,
2,
0,
0,
0,
0,
0,
0,
0,
0,
0,
0,
0,
0,
1,
0,
0,
1,
0,
0,
0,
0,
0,
0,
0,
0,
0,
0,
0,
0,
0,
0,
0,
0,
0,
0,
0,
0,
0,
0,
0,
0,
0,
0,
0,
0,
0,
0,
0,
0,
0,
0,
0,
0,
0,
0,
0,
0,
0,
0,
0,
0,
0,
0,
0,
0,
0,
0,
0,
0,
0,
0,
0,
0,
0,
0,
0,
0,
0,
0,
0,
0,
0,
0,
0,
0,
0,
0,
0,
0,
0,
0,
0,
0,
0,
0,
0,
0,
0,
0,
0,
0,
0,
0,
0,
0,
0,
0,
0,
0,
0,
0,
0,
0,
0,
0,
0,
0,
0,
0,
0,
0,
0,
0,
0,
0,
0,
0,
0,
0,
0,
0,
0,
0,
0,
0,
0,
0,
0,
0,
0,
0,
0,
0,
0,
0,
0,
0,
0,
0,
0,
0,
0,
0,
0,
0,
0,
0,
0,
0,
0,
0,
0,
0,
0,
0,
0,
0,
0,
0,
0,
0,
0,
0,
0,
0,
0,
0,
0,
0,
0,
0,
0,
0,
0,
0,
#ENDOFDATA   :

File: GMIIIA K1080[1][4].msa
#FORMAT      : EMSA/MAS Spectral Data File
#VERSION     : 1.0
#TITLE       : GMIIIA K1080[1][all]
#DATE        : 22-SEP-2025
#TIME        : 20:50
#OWNER       : Unknown
#NPOINTS     : 4096
#NCOLUMNS    : 1
#XUNITS      : eV
#YUNITS      : counts
#DATATYPE    : Y
#XPERCHAN    : 9.99778
#OFFSET      : 1.69135
#BEAMKV      : 15
#SIGNALTYPE  : EDS
#ELEVANGLE   : 35
#AZIMANGLE   : 0
#LIVETIME    : 239.939
#REALTIME    : 255.3323
#PROBECUR    : 1.2178
#TAUWIND     : 0
#TDEADLYR    : 0
#TACTLYR     : 0.045
#TALWIND     : 0.025
#CHOFFSET    : 0.0
#XLABEL      : Energy (eV)
#YLABEL      : Counts
#XPOSITION   : 0.44976
#YPOSITION   : 15.76558
#ZPOSITION   : 37.36299
#EDSDET      : SD
##SPECIMEN   : GMIIIA K1080[1][all]
##D2STDCMP   : K1080,(Li:2.79),(B:0.62),(O:41.65),(Mg:1.21),(Al:7.94),(Si:18.7),(Ca:10.72),(Ti:1.2),(Sr:12.68),(Zr:0.74),(Lu:1.76)
##DET_HASH   : 12273538-fd48-a23f-0a19-f1e6fa85caef
##CALIB_HASH : 6abaa72c-aa41-8738-0be9-f592914732f3
##WORKING    : 15.0 mm
##DET_NAME   : EDAX All
##DET_MODE   : MediumLE
#SPECTRUM    :
32,
316,
8549,
7670,
54302,
3860,
4359,
4949,
5491,
15596,
9915,
31236,
48157,
67087,
6306,
4099,
3433,
2920,
2673,
2752,
2554,
2443,
2409,
2483,
2284,
2539,
20361,
7822,
2847,
4507,
1777,
1662,
3693,
1705,
1445,
1645,
1397,
1308,
1319,
1211,
1161,
1159,
1049,
1037,
988,
924,
958,
866,
823,
823,
720,
736,
745,
681,
819,
825,
658,
571,
539,
574,
504,
516,
562,
501,
489,
422,
388,
380,
397,
336,
336,
312,
330,
249,
256,
260,
237,
239,
223,
186,
184,
188,
156,
172,
156,
154,
150,
125,
143,
112,
104,
79,
91,
70,
42,
54,
46,
63,
33,
32,
32,
30,
23,
17,
12,
6,
4,
2,
0,
0,
0,
0,
1,
0,
0,
0,
0,
0,
1,
0,
0,
1,
0,
0,
0,
0,
0,
0,
1,
0,
0,
0,
0,
0,
0,
0,
0,
0,
0,
0,
0,
0,
0,
0,
0,
0,
0,
0,
0,
0,
0,
0,
0,
0,
0,
0,
0,
0,
0,
0,
0,
0,
0,
0,
0,
0,
0,
0,
0,
0,
0,
0,
0,
0,
0,
0,
0,
0,
0,
0,
0,
0,
0,
0,
0,
0,
0,
0,
0,
0,
0,
0,
0,
0,
0,
0,
0,
0,
0,
0,
0,
0,
0,
0,
0,
0,
0,
0,
0,
0,
0,
0,
0,
0,
0,
0,
0,
0,
0,
0,
0,
0,
0,
0,
0,
0,
0,
0,
0,
0,
0,
0,
0,
0,
0,
0,
0,
0,
0,
0,
0,
0,
0,
0,
0,
0,
0,
0,
0,
0,
0,
0,
0,
0,
0,
0,
0,
0,
0,
0,
0,
0,
0,
0,
0,
0,
0,
0,
0,
0,
0,
0,
0,
0,
0,
0,
0,
0,
0,
0,
0,
0,
0,
0,
0,
0,
0,
0,
0,
0,
0,
0,
0,
0,
#ENDOFDATA   :

File: GMIIIA K1080[2][4].msa
#FORMAT      : EMSA/MAS Spectral Data File
#VERSION     : 1.0
#TITLE       : GMIIIA K1080[2][all]
#DATE        : 22-SEP-2025
#TIME        : 20:52
#OWNER       : Unknown
#NPOINTS     : 4096
#NCOLUMNS    : 1
#XUNITS      : eV
#YUNITS      : counts
#DATATYPE    : Y
#XPERCHAN    : 9.99778
#OFFSET      : 1.69135
#BEAMKV      : 15
#SIGNALTYPE  : EDS
#ELEVANGLE   : 35
#AZIMANGLE   : 0
#LIVETIME    : 239.9
#REALTIME    : 255.2806
#PROBECUR    : 1.2178
#TAUWIND     : 0
#TDEADLYR    : 0
#TACTLYR     : 0.045
#TALWIND     : 0.025
#CHOFFSET    : 0.0
#XLABEL      : Energy (eV)
#YLABEL      : Counts
#XPOSITION   : 0.44345
#YPOSITION   : 15.73786
#ZPOSITION   : 37.36299
#EDSDET      : SD
##SPECIMEN   : GMIIIA K1080[2][all]
##D2STDCMP   : K1080,(Li:2.79),(B:0.62),(O:41.65),(Mg:1.21),(Al:7.94),(Si:18.7),(Ca:10.72),(Ti:1.2),(Sr:12.68),(Zr:0.74),(Lu:1.76)
##DET_HASH   : 12273538-fd48-a23f-0a19-f1e6fa85caef
##CALIB_HASH : 6abaa72c-aa41-8738-0be9-f592914732f3
##WORKING    : 15.0 mm
##DET_NAME   : EDAX All
##DET_MODE   : MediumLE
#SPECTRUM    :
29,
284,
8719,
7622,
54330,
3702,
4167,
4954,
5351,
15726,
10032,
31614,
47951,
66947,
6348,
4043,
3529,
2826,
2763,
2686,
2639,
2336,
2464,
2467,
2265,
2498,
20416,
8036,
2584,
4519,
1739,
1680,
3735,
1743,
1470,
1685,
1418,
1331,
1263,
1233,
1134,
1166,
1073,
1013,
963,
944,
925,
860,
880,
793,
762,
740,
719,
727,
828,
866,
620,
612,
556,
538,
491,
502,
562,
461,
463,
493,
429,
389,
366,
366,
340,
281,
313,
275,
275,
282,
232,
228,
251,
226,
203,
217,
191,
155,
163,
133,
127,
114,
123,
105,
90,
91,
95,
81,
63,
66,
62,
50,
36,
41,
21,
24,
29,
16,
11,
10,
2,
5,
1,
1,
0,
1,
0,
0,
1,
0,
0,
1,
0,
1,
0,
0,
1,
1,
0,
0,
0,
0,
0,
0,
0,
0,
0,
0,
0,
0,
0,
0,
0,
0,
0,
0,
0,
0,
0,
0,
0,
0,
0,
0,
0,
0,
0,
0,
0,
0,
0,
0,
0,
0,
0,
0,
0,
0,
0,
0,
0,
0,
0,
0,
0,
0,
0,
0,
0,
0,
0,
0,
0,
0,
0,
0,
0,
0,
0,
0,
0,
0,
0,
0,
0,
0,
0,
0,
0,
0,
0,
0,
0,
0,
0,
0,
0,
0,
0,
0,
0,
0,
0,
0,
0,
0,
0,
0,
0,
0,
0,
0,
0,
0,
0,
0,
0,
0,
0,
0,
0,
0,
0,
0,
0,
0,
0,
0,
0,
0,
0,
0,
0,
0,
0,
0,
0,
0,
0,
0,
0,
0,
0,
0,
0,
0,
0,
0,
0,
0,
0,
0,
0,
0,
0,
0,
0,
0,
0,
0,
0,
0,
0,
0,
0,
0,
0,
0,
0,
0,
0,
0,
0,
0,
0,
0,
0,
0,
0,
0,
0,
0,
0,
0,
0,
0,
0,
0,
#ENDOFDATA   :

File: GMIIIA K1080[3][4].msa
#FORMAT      : EMSA/MAS Spectral Data File
#VERSION     : 1.0
#TITLE       : GMIIIA K1080[3][all]
#DATE        : 22-SEP-2025
#TIME        : 20:53
#OWNER       : Unknown
#NPOINTS     : 4096
#NCOLUMNS    : 1
#XUNITS      : eV
#YUNITS      : counts
#DATATYPE    : Y
#XPERCHAN    : 9.99778
#OFFSET      : 1.69135
#BEAMKV      : 15
#SIGNALTYPE  : EDS
#ELEVANGLE   : 35
#AZIMANGLE   : 0
#LIVETIME    : 239.948
#REALTIME    : 255.3349
#PROBECUR    : 1.2178
#TAUWIND     : 0
#TDEADLYR    : 0
#TACTLYR     : 0.045
#TALWIND     : 0.025
#CHOFFSET    : 0.0
#XLABEL      : Energy (eV)
#YLABEL      : Counts
#XPOSITION   : 0.35665
#YPOSITION   : 15.71473
#ZPOSITION   : 37.36299
#EDSDET      : SD
##SPECIMEN   : GMIIIA K1080[3][all]
##D2STDCMP   : K1080,(Li:2.79),(B:0.62),(O:41.65),(Mg:1.21),(Al:7.94),(Si:18.7),(Ca:10.72),(Ti:1.2),(Sr:12.68),(Zr:0.74),(Lu:1.76)
##DET_HASH   : 12273538-fd48-a23f-0a19-f1e6fa85caef
##CALIB_HASH : 6abaa72c-aa41-8738-0be9-f592914732f3
##WORKING    : 15.0 mm
##DET_NAME   : EDAX All
##DET_MODE   : MediumLE
#SPECTRUM    :
13,
268,
8593,
7546,
54433,
3766,
4235,
4864,
5471,
15490,
9710,
31414,
48162,
67386,
6138,
3989,
3471,
2871,
2684,
2630,
2546,
2608,
2436,
2492,
2307,
2502,
20303,
7760,
2613,
4433,
1763,
1577,
3756,
1720,
1484,
1716,
1390,
1356,
1183,
1235,
1114,
1096,
1002,
1073,
1000,
967,
881,
909,
760,
773,
744,
768,
667,
671,
774,
875,
592,
623,
569,
553,
542,
520,
576,
508,
430,
510,
406,
330,
363,
385,
329,
330,
321,
315,
293,
266,
273,
239,
227,
218,
211,
172,
179,
155,
160,
148,
131,
156,
114,
110,
92,
97,
78,
73,
74,
77,
68,
53,
39,
31,
27,
22,
22,
15,
10,
5,
6,
3,
0,
1,
0,
0,
0,
0,
0,
1,
0,
0,
0,
0,
0,
1,
0,
1,
0,
0,
0,
0,
0,
0,
0,
0,
0,
0,
0,
0,
0,
0,
0,
0,
0,
0,
0,
0,
0,
0,
0,
0,
0,
0,
0,
0,
0,
0,
0,
0,
0,
1,
0,
0,
0,
0,
0,
0,
0,
0,
0,
0,
0,
0,
0,
0,
0,
0,
0,
0,
0,
0,
0,
0,
0,
0,
0,
0,
0,
0,
0,
0,
0,
0,
0,
0,
0,
0,
0,
0,
0,
0,
0,
0,
0,
0,
0,
0,
0,
0,
0,
0,
0,
0,
0,
0,
0,
0,
0,
0,
0,
0,
0,
0,
0,
0,
0,
0,
0,
0,
0,
0,
0,
0,
0,
0,
0,
0,
0,
0,
0,
0,
0,
0,
0,
0,
0,
0,
0,
0,
0,
0,
0,
0,
0,
0,
0,
0,
0,
0,
0,
0,
0,
0,
0,
0,
0,
0,
0,
0,
0,
0,
0,
0,
0,
0,
0,
0,
0,
0,
0,
0,
0,
0,
0,
0,
0,
0,
0,
0,
0,
0,
0,
0,
0,
0,
0,
0,
#ENDOFDATA   :

File: GMIIIA K1080[4][4].msa
#FORMAT      : EMSA/MAS Spectral Data File
#VERSION     : 1.0
#TITLE       : GMIIIA K1080[4][all]
#DATE        : 22-SEP-2025
#TIME        : 20:54
#OWNER       : Unknown
#NPOINTS     : 4096
#NCOLUMNS    : 1
#XUNITS      : eV
#YUNITS      : counts
#DATATYPE    : Y
#XPERCHAN    : 9.99778
#OFFSET      : 1.69135
#BEAMKV      : 15
#SIGNALTYPE  : EDS
#ELEVANGLE   : 35
#AZIMANGLE   : 0
#LIVETIME    : 239.949
#REALTIME    : 255.331
#PROBECUR    : 1.2178
#TAUWIND     : 0
#TDEADLYR    : 0
#TACTLYR     : 0.045
#TALWIND     : 0.025
#CHOFFSET    : 0.0
#XLABEL      : Energy (eV)
#YLABEL      : Counts
#XPOSITION   : 0.42176
#YPOSITION   : 15.75188
#ZPOSITION   : 37.36299
#EDSDET      : SD
##SPECIMEN   : GMIIIA K1080[4][all]
##D2STDCMP   : K1080,(Li:2.79),(B:0.62),(O:41.65),(Mg:1.21),(Al:7.94),(Si:18.7),(Ca:10.72),(Ti:1.2),(Sr:12.68),(Zr:0.74),(Lu:1.76)
##DET_HASH   : 12273538-fd48-a23f-0a19-f1e6fa85caef
##CALIB_HASH : 6abaa72c-aa41-8738-0be9-f592914732f3
##WORKING    : 15.0 mm
##DET_NAME   : EDAX All
##DET_MODE   : MediumLE
#SPECTRUM    :
27,
291,
8584,
7784,
54191,
3665,
4170,
4988,
5370,
15722,
9948,
31874,
48234,
67262,
6270,
4006,
3573,
2897,
2796,
2753,
2577,
2571,
2442,
2485,
2242,
2488,
20488,
7937,
2704,
4566,
1758,
1575,
3862,
1676,
1471,
1744,
1439,
1237,
1214,
1251,
1121,
1158,
1117,
1055,
913,
933,
949,
894,
848,
817,
803,
725,
753,
713,
860,
843,
596,
572,
582,
532,
496,
543,
573,
510,
518,
480,
374,
358,
371,
308,
337,
333,
318,
300,
269,
288,
252,
229,
232,
222,
201,
201,
166,
154,
151,
145,
134,
136,
100,
95,
94,
94,
87,
66,
74,
62,
64,
42,
43,
35,
20,
30,
14,
15,
14,
8,
4,
5,
3,
0,
0,
0,
1,
0,
1,
0,
0,
0,
0,
0,
0,
1,
0,
0,
0,
0,
0,
0,
2,
0,
0,
0,
0,
0,
1,
0,
1,
0,
0,
0,
0,
0,
0,
0,
0,
0,
0,
0,
0,
0,
0,
0,
0,
0,
0,
0,
0,
0,
0,
0,
0,
0,
0,
0,
0,
0,
0,
0,
0,
0,
0,
0,
0,
0,
0,
0,
0,
0,
0,
0,
0,
0,
0,
0,
0,
0,
0,
0,
0,
0,
0,
0,
0,
0,
0,
0,
0,
0,
0,
0,
0,
0,
0,
0,
0,
0,
0,
0,
0,
0,
0,
0,
0,
0,
0,
0,
0,
0,
0,
0,
0,
0,
0,
0,
0,
0,
0,
0,
0,
0,
0,
0,
0,
0,
0,
0,
0,
0,
0,
0,
0,
0,
0,
0,
0,
0,
0,
0,
0,
0,
0,
0,
0,
0,
0,
0,
0,
0,
0,
0,
0,
0,
0,
0,
0,
0,
0,
0,
0,
0,
0,
0,
0,
0,
0,
0,
0,
0,
0,
0,
0,
0,
0,
0,
0,
0,
0,
0,
0,
0,
0,
0,
0,
0,
#ENDOFDATA   :