Folder: spex_quant/N132962/Quantification/15 keV/GMIIIA (part 2)

File: GMIIIA K229[4][4].msa
#FORMAT      : EMSA/MAS Spectral Data File
#VERSION     : 1.0
#TITLE       : GMIIIA K229[4][all]
#DATE        : 22-SEP-2025
#TIME        : 14:28
#OWNER       : Unknown
#NPOINTS     : 4096
#NCOLUMNS    : 1
#XUNITS      : eV
#YUNITS      : counts
#DATATYPE    : Y
#XPERCHAN    : 9.99778
#OFFSET      : 1.69135
#BEAMKV      : 15
#SIGNALTYPE  : EDS
#ELEVANGLE   : 35
#AZIMANGLE   : 0
#LIVETIME    : 239.905
#REALTIME    : 260.137
#PROBECUR    : 1.21983
#TAUWIND     : 0
#TDEADLYR    : 0
#TACTLYR     : 0.045
#TALWIND     : 0.025
#CHOFFSET    : 0.0
#XLABEL      : Energy (eV)
#YLABEL      : Counts
#XPOSITION   : 5.9628
#YPOSITION   : 0.70012
#ZPOSITION   : 37.36299
#EDSDET      : SD
##SPECIMEN   : GMIIIA K229[4][all]
##D2STDCMP   : K229,(O:20.99),(Si:14.02),(Pb:64.98)
##DET_HASH   : 12273538-fd48-a23f-0a19-f1e6fa85caef
##CALIB_HASH : 6abaa72c-aa41-8738-0be9-f592914732f3
##WORKING    : 15.0 mm
##DET_NAME   : EDAX All
##DET_MODE   : MediumLE
#SPECTRUM    :
35,
614,
13175,
8445,
33925,
8517,
7530,
8133,
8629,
9250,
9781,
10280,
44885,
33524,
7537,
8044,
15582,
115153,
19586,
10437,
4625,
5131,
6069,
4742,
4313,
4553,
4204,
4342,
4031,
4197,
3985,
3901,
4038,
3692,
3763,
3653,
3500,
3333,
3263,
3245,
3071,
3021,
2906,
2797,
2779,
2748,
2683,
2546,
2468,
2421,
2357,
2263,
2219,
2102,
2083,
2005,
1838,
1897,
1762,
1742,
1606,
1532,
1595,
1525,
1459,
1406,
1437,
1293,
1254,
1311,
1119,
1118,
1122,
1056,
1110,
2033,
1436,
862,
835,
747,
734,
682,
685,
640,
598,
568,
605,
519,
483,
491,
617,
429,
377,
373,
306,
275,
229,
232,
214,
178,
162,
99,
98,
93,
70,
44,
31,
12,
6,
4,
3,
2,
2,
3,
2,
0,
2,
0,
3,
0,
0,
2,
1,
1,
1,
1,
0,
0,
0,
0,
1,
2,
1,
0,
0,
0,
3,
1,
1,
1,
0,
1,
0,
0,
0,
0,
1,
0,
0,
0,
0,
0,
0,
0,
0,
0,
0,
0,
2,
0,
0,
1,
0,
0,
0,
1,
0,
0,
0,
0,
0,
0,
0,
0,
0,
0,
0,
0,
0,
0,
0,
0,
0,
0,
0,
0,
0,
0,
0,
0,
0,
0,
0,
0,
0,
0,
0,
0,
0,
0,
0,
0,
0,
0,
0,
0,
0,
0,
0,
0,
0,
0,
0,
0,
0,
0,
0,
0,
0,
0,
0,
0,
0,
0,
0,
0,
0,
0,
0,
0,
0,
0,
0,
0,
0,
0,
0,
0,
0,
0,
0,
0,
0,
0,
0,
0,
0,
0,
0,
0,
0,
0,
0,
0,
0,
0,
0,
0,
0,
0,
0,
0,
0,
0,
0,
0,
0,
0,
0,
0,
0,
0,
0,
0,
0,
0,
0,
0,
0,
0,
0,
0,
0,
0,
0,
0,
0,
0,
0,
0,
0,
0,
0,
0,
#ENDOFDATA   :

File: GMIIIA K229[5][4].msa
#FORMAT      : EMSA/MAS Spectral Data File
#VERSION     : 1.0
#TITLE       : GMIIIA K229[5][all]
#DATE        : 22-SEP-2025
#TIME        : 14:29
#OWNER       : Unknown
#NPOINTS     : 4096
#NCOLUMNS    : 1
#XUNITS      : eV
#YUNITS      : counts
#DATATYPE    : Y
#XPERCHAN    : 9.99778
#OFFSET      : 1.69135
#BEAMKV      : 15
#SIGNALTYPE  : EDS
#ELEVANGLE   : 35
#AZIMANGLE   : 0
#LIVETIME    : 239.928
#REALTIME    : 260.147
#PROBECUR    : 1.21983
#TAUWIND     : 0
#TDEADLYR    : 0
#TACTLYR     : 0.045
#TALWIND     : 0.025
#CHOFFSET    : 0.0
#XLABEL      : Energy (eV)
#YLABEL      : Counts
#XPOSITION   : 5.93064
#YPOSITION   : 0.74389
#ZPOSITION   : 37.36299
#EDSDET      : SD
##SPECIMEN   : GMIIIA K229[5][all]
##D2STDCMP   : K229,(O:20.99),(Si:14.02),(Pb:64.98)
##DET_HASH   : 12273538-fd48-a23f-0a19-f1e6fa85caef
##CALIB_HASH : 6abaa72c-aa41-8738-0be9-f592914732f3
##WORKING    : 15.0 mm
##DET_NAME   : EDAX All
##DET_MODE   : MediumLE
#SPECTRUM    :
22,
623,
13246,
8380,
33556,
8460,
7391,
8029,
8589,
9287,
9648,
10140,
44773,
32950,
7635,
7844,
15489,
115288,
19666,
10559,
4767,
5398,
6231,
4825,
4423,
4439,
4319,
4255,
3901,
4185,
3949,
3878,
3988,
3748,
3810,
3580,
3451,
3293,
3272,
3135,
3054,
3021,
2923,
2736,
2735,
2728,
2736,
2589,
2463,
2386,
2294,
2339,
2133,
2108,
2076,
1982,
1918,
1964,
1765,
1701,
1654,
1603,
1519,
1496,
1441,
1444,
1439,
1348,
1246,
1227,
1170,
1086,
1075,
1052,
1075,
2133,
1528,
938,
835,
817,
743,
724,
677,
617,
586,
565,
557,
491,
470,
444,
636,
458,
382,
323,
290,
268,
225,
201,
180,
154,
139,
149,
137,
94,
67,
47,
26,
9,
3,
2,
3,
1,
1,
0,
0,
2,
0,
1,
3,
1,
1,
0,
0,
1,
2,
1,
3,
0,
1,
2,
0,
0,
2,
1,
0,
0,
1,
1,
2,
0,
0,
0,
0,
0,
1,
0,
0,
0,
1,
0,
0,
0,
1,
1,
0,
0,
0,
0,
0,
0,
0,
0,
0,
0,
0,
0,
0,
0,
0,
0,
0,
0,
0,
0,
0,
0,
0,
0,
0,
0,
0,
0,
0,
0,
0,
0,
0,
0,
0,
0,
0,
0,
0,
0,
0,
0,
0,
0,
0,
0,
0,
0,
0,
0,
0,
0,
0,
0,
0,
0,
0,
0,
0,
0,
0,
0,
0,
0,
0,
0,
0,
0,
0,
0,
0,
0,
0,
0,
0,
0,
0,
0,
0,
0,
0,
0,
0,
0,
0,
0,
0,
0,
0,
0,
0,
0,
0,
0,
0,
0,
0,
0,
0,
0,
0,
0,
0,
0,
0,
0,
0,
0,
0,
0,
0,
0,
0,
0,
0,
0,
0,
0,
0,
0,
0,
0,
0,
0,
0,
0,
0,
0,
0,
0,
0,
0,
0,
0,
0,
0,
0,
0,
0,
0,
#ENDOFDATA   :

File: GMIIIA K229[6][4].msa
#FORMAT      : EMSA/MAS Spectral Data File
#VERSION     : 1.0
#TITLE       : GMIIIA K229[6][all]
#DATE        : 22-SEP-2025
#TIME        : 14:30
#OWNER       : Unknown
#NPOINTS     : 4096
#NCOLUMNS    : 1
#XUNITS      : eV
#YUNITS      : counts
#DATATYPE    : Y
#XPERCHAN    : 9.99778
#OFFSET      : 1.69135
#BEAMKV      : 15
#SIGNALTYPE  : EDS
#ELEVANGLE   : 35
#AZIMANGLE   : 0
#LIVETIME    : 239.832
#REALTIME    : 260.072
#PROBECUR    : 1.21983
#TAUWIND     : 0
#TDEADLYR    : 0
#TACTLYR     : 0.045
#TALWIND     : 0.025
#CHOFFSET    : 0.0
#XLABEL      : Energy (eV)
#YLABEL      : Counts
#XPOSITION   : 5.91893
#YPOSITION   : 0.66477
#ZPOSITION   : 37.36299
#EDSDET      : SD
##SPECIMEN   : GMIIIA K229[6][all]
##D2STDCMP   : K229,(O:20.99),(Si:14.02),(Pb:64.98)
##DET_HASH   : 12273538-fd48-a23f-0a19-f1e6fa85caef
##CALIB_HASH : 6abaa72c-aa41-8738-0be9-f592914732f3
##WORKING    : 15.0 mm
##DET_NAME   : EDAX All
##DET_MODE   : MediumLE
#SPECTRUM    :
25,
622,
13416,
8361,
33768,
8508,
7549,
8168,
8739,
9155,
9668,
10300,
45042,
33456,
7865,
7867,
15632,
114661,
19544,
10567,
4782,
5237,
6192,
4832,
4496,
4474,
4282,
4216,
4267,
4144,
4152,
3887,
3906,
3689,
3688,
3613,
3443,
3349,
3229,
3174,
3065,
2989,
2887,
2903,
2784,
2746,
2623,
2527,
2548,
2359,
2259,
2165,
2196,
2080,
2086,
1986,
1998,
1874,
1845,
1716,
1682,
1643,
1596,
1507,
1397,
1492,
1431,
1261,
1231,
1257,
1162,
1147,
1050,
1029,
1096,
2136,
1369,
877,
824,
807,
703,
744,
643,
664,
622,
570,
559,
552,
487,
469,
631,
459,
318,
343,
276,
272,
218,
186,
212,
166,
119,
132,
97,
86,
69,
46,
24,
8,
4,
3,
2,
3,
3,
3,
1,
4,
1,
1,
2,
2,
1,
0,
0,
0,
4,
2,
0,
2,
2,
2,
1,
2,
1,
0,
2,
1,
2,
2,
1,
0,
1,
0,
1,
0,
0,
1,
0,
0,
2,
0,
1,
0,
0,
0,
0,
1,
0,
1,
0,
0,
1,
0,
0,
1,
0,
0,
0,
0,
0,
0,
0,
0,
0,
0,
0,
0,
0,
0,
0,
0,
0,
0,
0,
0,
0,
0,
0,
0,
0,
0,
0,
0,
0,
0,
0,
0,
0,
0,
0,
0,
0,
0,
0,
0,
0,
0,
0,
0,
0,
0,
0,
0,
0,
0,
0,
0,
0,
0,
0,
0,
0,
0,
0,
0,
0,
0,
0,
0,
0,
0,
0,
0,
0,
0,
0,
0,
0,
0,
0,
0,
0,
0,
0,
0,
0,
0,
0,
0,
0,
0,
0,
0,
0,
0,
0,
0,
0,
0,
0,
0,
0,
0,
0,
0,
0,
0,
0,
0,
0,
0,
0,
0,
0,
0,
0,
0,
0,
0,
0,
0,
0,
0,
0,
0,
0,
0,
0,
0,
0,
0,
0,
0,
0,
0,
#ENDOFDATA   :

File: GMIIIA K230[0][4].msa
#FORMAT      : EMSA/MAS Spectral Data File
#VERSION     : 1.0
#TITLE       : GMIIIA K230[0][all]
#DATE        : 22-SEP-2025
#TIME        : 14:31
#OWNER       : Unknown
#NPOINTS     : 4096
#NCOLUMNS    : 1
#XUNITS      : eV
#YUNITS      : counts
#DATATYPE    : Y
#XPERCHAN    : 9.99778
#OFFSET      : 1.69135
#BEAMKV      : 15
#SIGNALTYPE  : EDS
#ELEVANGLE   : 35
#AZIMANGLE   : 0
#LIVETIME    : 239.844
#REALTIME    : 258.607
#PROBECUR    : 1.21983
#TAUWIND     : 0
#TDEADLYR    : 0
#TACTLYR     : 0.045
#TALWIND     : 0.025
#CHOFFSET    : 0.0
#XLABEL      : Energy (eV)
#YLABEL      : Counts
#XPOSITION   : 3.84332
#YPOSITION   : 0.88108
#ZPOSITION   : 37.36299
#EDSDET      : SD
##SPECIMEN   : GMIIIA K230[0][all]
##D2STDCMP   : K230,(O:24.49),(Al:2.65),(Si:14.02),(Zn:4.02),(Ba:8.96),(Ta:4.09),(Pb:41.77)
##DET_HASH   : 12273538-fd48-a23f-0a19-f1e6fa85caef
##CALIB_HASH : 6abaa72c-aa41-8738-0be9-f592914732f3
##WORKING    : 15.0 mm
##DET_NAME   : EDAX All
##DET_MODE   : MediumLE
#SPECTRUM    :
32,
511,
12296,
9355,
44544,
7861,
7362,
17154,
7829,
7993,
9701,
15040,
47748,
28467,
7662,
6538,
11271,
68799,
13371,
8249,
4430,
4647,
5325,
4409,
4166,
4223,
3909,
3914,
3920,
3813,
3617,
3901,
11295,
3448,
4769,
5359,
3283,
4078,
2849,
2992,
2959,
2841,
2624,
2441,
2298,
2291,
2239,
2247,
2018,
2088,
1876,
1947,
1867,
1748,
1675,
1709,
1611,
1640,
2113,
1516,
1370,
2010,
2261,
1308,
1253,
1208,
1238,
1261,
1251,
1222,
969,
871,
935,
867,
845,
1480,
1076,
739,
761,
662,
603,
587,
541,
515,
508,
463,
423,
414,
346,
415,
469,
339,
268,
254,
202,
210,
187,
158,
148,
132,
104,
88,
90,
75,
45,
25,
15,
8,
3,
3,
4,
3,
1,
4,
2,
1,
1,
0,
3,
0,
0,
2,
3,
0,
1,
1,
1,
1,
1,
0,
3,
0,
1,
0,
1,
1,
0,
0,
1,
2,
0,
0,
0,
1,
0,
0,
1,
1,
0,
0,
1,
0,
0,
0,
0,
0,
0,
0,
0,
0,
0,
0,
0,
0,
0,
0,
1,
0,
0,
0,
0,
0,
0,
0,
0,
0,
0,
0,
0,
0,
0,
0,
0,
0,
0,
0,
0,
0,
0,
0,
0,
0,
0,
0,
0,
0,
0,
0,
0,
0,
0,
0,
0,
0,
0,
0,
0,
0,
0,
0,
0,
0,
0,
0,
0,
0,
0,
0,
0,
0,
0,
0,
0,
0,
0,
0,
0,
0,
0,
0,
0,
0,
0,
0,
0,
0,
0,
0,
0,
0,
0,
0,
0,
0,
0,
0,
0,
0,
0,
0,
0,
0,
0,
0,
0,
0,
0,
0,
0,
0,
0,
0,
0,
0,
0,
0,
0,
0,
0,
0,
0,
0,
0,
0,
0,
0,
0,
0,
0,
0,
0,
0,
0,
0,
0,
0,
0,
0,
0,
0,
0,
0,
0,
0,
#ENDOFDATA   :

File: GMIIIA K230[1][4].msa
#FORMAT      : EMSA/MAS Spectral Data File
#VERSION     : 1.0
#TITLE       : GMIIIA K230[1][all]
#DATE        : 22-SEP-2025
#TIME        : 14:32
#OWNER       : Unknown
#NPOINTS     : 4096
#NCOLUMNS    : 1
#XUNITS      : eV
#YUNITS      : counts
#DATATYPE    : Y
#XPERCHAN    : 9.99778
#OFFSET      : 1.69135
#BEAMKV      : 15
#SIGNALTYPE  : EDS
#ELEVANGLE   : 35
#AZIMANGLE   : 0
#LIVETIME    : 239.831
#REALTIME    : 258.577
#PROBECUR    : 1.21983
#TAUWIND     : 0
#TDEADLYR    : 0
#TACTLYR     : 0.045
#TALWIND     : 0.025
#CHOFFSET    : 0.0
#XLABEL      : Energy (eV)
#YLABEL      : Counts
#XPOSITION   : 3.8564
#YPOSITION   : 0.84958
#ZPOSITION   : 37.36299
#EDSDET      : SD
##SPECIMEN   : GMIIIA K230[1][all]
##D2STDCMP   : K230,(O:24.49),(Al:2.65),(Si:14.02),(Zn:4.02),(Ba:8.96),(Ta:4.09),(Pb:41.77)
##DET_HASH   : 12273538-fd48-a23f-0a19-f1e6fa85caef
##CALIB_HASH : 6abaa72c-aa41-8738-0be9-f592914732f3
##WORKING    : 15.0 mm
##DET_NAME   : EDAX All
##DET_MODE   : MediumLE
#SPECTRUM    :
28,
475,
12822,
9257,
43478,
7579,
7652,
17062,
7836,
8009,
9585,
15281,
47991,
28150,
7473,
6590,
11159,
69163,
13183,
8461,
4595,
4781,
5417,
4424,
4061,
4101,
3974,
3874,
3885,
3657,
3767,
3900,
11237,
3360,
4700,
5174,
3260,
4152,
2857,
3017,
2868,
2633,
2518,
2423,
2351,
2255,
2259,
2128,
2082,
1886,
1933,
1912,
1883,
1782,
1726,
1659,
1531,
1503,
2158,
1601,
1356,
2003,
2410,
1258,
1175,
1227,
1199,
1234,
1234,
1163,
975,
943,
884,
895,
844,
1444,
1083,
745,
671,
645,
613,
583,
572,
496,
473,
473,
416,
422,
357,
372,
455,
309,
274,
264,
236,
177,
206,
152,
146,
144,
99,
89,
92,
74,
41,
23,
21,
8,
2,
3,
5,
2,
4,
3,
0,
0,
1,
2,
1,
1,
0,
2,
0,
0,
0,
1,
1,
1,
2,
0,
0,
2,
2,
0,
0,
0,
1,
1,
1,
0,
0,
1,
0,
0,
0,
0,
0,
0,
1,
1,
0,
0,
0,
0,
0,
0,
0,
0,
0,
0,
0,
0,
0,
0,
0,
0,
0,
0,
0,
0,
0,
0,
1,
0,
0,
0,
0,
0,
0,
0,
0,
0,
0,
0,
0,
0,
0,
0,
0,
0,
0,
0,
0,
0,
0,
0,
0,
0,
0,
0,
0,
0,
0,
0,
0,
0,
0,
0,
0,
1,
0,
0,
0,
0,
0,
0,
0,
0,
0,
0,
0,
0,
0,
0,
0,
0,
0,
0,
0,
0,
0,
0,
0,
0,
0,
0,
0,
0,
0,
0,
0,
0,
0,
0,
0,
0,
0,
0,
0,
0,
0,
0,
0,
0,
0,
0,
0,
0,
0,
0,
0,
0,
0,
0,
0,
0,
0,
0,
0,
0,
0,
0,
0,
0,
0,
0,
0,
0,
0,
0,
0,
0,
0,
0,
0,
0,
0,
0,
0,
0,
0,
0,
0,
0,
#ENDOFDATA   :

File: GMIIIA K230[2][4].msa
#FORMAT      : EMSA/MAS Spectral Data File
#VERSION     : 1.0
#TITLE       : GMIIIA K230[2][all]
#DATE        : 22-SEP-2025
#TIME        : 14:34
#OWNER       : Unknown
#NPOINTS     : 4096
#NCOLUMNS    : 1
#XUNITS      : eV
#YUNITS      : counts
#DATATYPE    : Y
#XPERCHAN    : 9.99778
#OFFSET      : 1.69135
#BEAMKV      : 15
#SIGNALTYPE  : EDS
#ELEVANGLE   : 35
#AZIMANGLE   : 0
#LIVETIME    : 239.84
#REALTIME    : 258.605
#PROBECUR    : 1.21983
#TAUWIND     : 0
#TDEADLYR    : 0
#TACTLYR     : 0.045
#TALWIND     : 0.025
#CHOFFSET    : 0.0
#XLABEL      : Energy (eV)
#YLABEL      : Counts
#XPOSITION   : 3.84285
#YPOSITION   : 0.86714
#ZPOSITION   : 37.36299
#EDSDET      : SD
##SPECIMEN   : GMIIIA K230[2][all]
##D2STDCMP   : K230,(O:24.49),(Al:2.65),(Si:14.02),(Zn:4.02),(Ba:8.96),(Ta:4.09),(Pb:41.77)
##DET_HASH   : 12273538-fd48-a23f-0a19-f1e6fa85caef
##CALIB_HASH : 6abaa72c-aa41-8738-0be9-f592914732f3
##WORKING    : 15.0 mm
##DET_NAME   : EDAX All
##DET_MODE   : MediumLE
#SPECTRUM    :
23,
464,
12842,
9195,
44287,
7541,
7382,
16993,
7732,
7923,
9447,
15256,
47840,
28238,
7586,
6719,
11070,
68416,
13210,
8234,
4538,
4682,
5363,
4480,
4107,
4135,
3781,
3923,
3853,
3797,
3542,
4043,
11222,
3404,
4586,
5287,
3206,
4163,
2884,
2912,
3029,
2784,
2568,
2429,
2277,
2288,
2213,
2138,
2014,
2001,
1967,
1877,
1797,
1744,
1695,
1608,
1570,
1642,
2144,
1555,
1442,
1970,
2368,
1236,
1199,
1238,
1185,
1310,
1277,
1143,
984,
954,
883,
844,
902,
1357,
1072,
706,
671,
661,
626,
566,
580,
523,
461,
454,
407,
382,
354,
353,
455,
310,
266,
288,
211,
214,
190,
152,
123,
117,
112,
96,
74,
61,
45,
32,
20,
8,
3,
2,
2,
3,
1,
2,
1,
0,
0,
2,
0,
2,
1,
2,
1,
1,
1,
1,
2,
0,
1,
1,
2,
0,
0,
2,
0,
0,
0,
0,
1,
2,
0,
1,
0,
0,
0,
1,
0,
0,
0,
0,
0,
0,
1,
0,
0,
0,
0,
0,
0,
0,
0,
0,
0,
0,
0,
0,
0,
0,
0,
0,
0,
0,
0,
0,
0,
0,
0,
0,
0,
0,
0,
0,
0,
0,
0,
0,
0,
0,
0,
0,
0,
0,
0,
0,
0,
0,
0,
0,
0,
0,
0,
0,
0,
0,
0,
0,
0,
0,
0,
0,
0,
0,
0,
0,
0,
0,
0,
0,
0,
0,
0,
0,
0,
0,
0,
0,
0,
0,
0,
0,
0,
0,
0,
0,
0,
0,
0,
0,
0,
0,
0,
0,
0,
0,
0,
0,
0,
0,
0,
0,
0,
0,
0,
0,
0,
0,
0,
0,
0,
0,
0,
0,
0,
0,
0,
0,
0,
0,
0,
0,
0,
0,
0,
0,
0,
0,
0,
0,
0,
0,
0,
0,
0,
0,
0,
0,
0,
0,
0,
0,
0,
0,
0,
0,
#ENDOFDATA   :

File: GMIIIA K230[3][4].msa
#FORMAT      : EMSA/MAS Spectral Data File
#VERSION     : 1.0
#TITLE       : GMIIIA K230[3][all]
#DATE        : 22-SEP-2025
#TIME        : 14:35
#OWNER       : Unknown
#NPOINTS     : 4096
#NCOLUMNS    : 1
#XUNITS      : eV
#YUNITS      : counts
#DATATYPE    : Y
#XPERCHAN    : 9.99778
#OFFSET      : 1.69135
#BEAMKV      : 15
#SIGNALTYPE  : EDS
#ELEVANGLE   : 35
#AZIMANGLE   : 0
#LIVETIME    : 239.837
#REALTIME    : 258.598
#PROBECUR    : 1.21983
#TAUWIND     : 0
#TDEADLYR    : 0
#TACTLYR     : 0.045
#TALWIND     : 0.025
#CHOFFSET    : 0.0
#XLABEL      : Energy (eV)
#YLABEL      : Counts
#XPOSITION   : 3.87183
#YPOSITION   : 0.88845
#ZPOSITION   : 37.36299
#EDSDET      : SD
##SPECIMEN   : GMIIIA K230[3][all]
##D2STDCMP   : K230,(O:24.49),(Al:2.65),(Si:14.02),(Zn:4.02),(Ba:8.96),(Ta:4.09),(Pb:41.77)
##DET_HASH   : 12273538-fd48-a23f-0a19-f1e6fa85caef
##CALIB_HASH : 6abaa72c-aa41-8738-0be9-f592914732f3
##WORKING    : 15.0 mm
##DET_NAME   : EDAX All
##DET_MODE   : MediumLE
#SPECTRUM    :
23,
492,
12792,
9142,
43995,
7737,
7552,
17207,
7990,
7969,
9465,
15309,
48072,
28444,
7637,
6625,
11177,
68704,
13231,
8251,
4437,
4636,
5468,
4357,
4260,
4191,
3914,
3827,
3928,
3808,
3637,
3945,
11382,
3340,
4699,
5108,
3323,
4149,
2930,
2991,
2877,
2688,
2578,
2411,
2357,
2332,
2297,
2152,
2116,
2022,
1939,
1912,
1833,
1780,
1772,
1591,
1633,
1559,
2043,
1543,
1398,
1973,
2427,
1259,
1202,
1152,
1209,
1213,
1274,
1234,
963,
907,
881,
845,
868,
1477,
1059,
681,
671,
589,
589,
590,
547,
486,
479,
433,
470,
403,
410,
378,
457,
323,
270,
269,
209,
216,
193,
171,
153,
133,
113,
84,
70,
65,
55,
44,
23,
10,
1,
3,
2,
2,
2,
0,
2,
2,
1,
0,
1,
0,
0,
3,
0,
2,
2,
0,
0,
0,
0,
0,
3,
0,
0,
0,
2,
1,
2,
0,
0,
1,
0,
0,
0,
1,
0,
0,
0,
0,
0,
0,
0,
2,
0,
1,
0,
0,
0,
0,
0,
0,
0,
0,
0,
0,
0,
0,
0,
0,
0,
0,
0,
0,
0,
0,
0,
0,
0,
0,
0,
0,
0,
0,
0,
0,
0,
0,
0,
0,
0,
0,
0,
0,
0,
0,
0,
0,
0,
0,
0,
0,
0,
0,
0,
0,
0,
0,
0,
0,
0,
0,
0,
0,
0,
0,
0,
0,
0,
0,
0,
0,
0,
0,
0,
0,
0,
0,
0,
0,
0,
0,
0,
0,
0,
0,
0,
0,
0,
0,
0,
0,
0,
0,
0,
0,
0,
0,
0,
0,
0,
0,
0,
0,
0,
0,
0,
0,
0,
0,
0,
0,
0,
0,
0,
0,
0,
0,
0,
0,
0,
0,
0,
0,
0,
0,
0,
0,
0,
0,
0,
0,
0,
0,
0,
0,
0,
0,
0,
0,
0,
0,
0,
0,
0,
0,
#ENDOFDATA   :

File: GMIIIA K230[4][4].msa
#FORMAT      : EMSA/MAS Spectral Data File
#VERSION     : 1.0
#TITLE       : GMIIIA K230[4][all]
#DATE        : 22-SEP-2025
#TIME        : 14:36
#OWNER       : Unknown
#NPOINTS     : 4096
#NCOLUMNS    : 1
#XUNITS      : eV
#YUNITS      : counts
#DATATYPE    : Y
#XPERCHAN    : 9.99778
#OFFSET      : 1.69135
#BEAMKV      : 15
#SIGNALTYPE  : EDS
#ELEVANGLE   : 35
#AZIMANGLE   : 0
#LIVETIME    : 239.836
#REALTIME    : 258.607
#PROBECUR    : 1.21983
#TAUWIND     : 0
#TDEADLYR    : 0
#TACTLYR     : 0.045
#TALWIND     : 0.025
#CHOFFSET    : 0.0
#XLABEL      : Energy (eV)
#YLABEL      : Counts
#XPOSITION   : 3.85293
#YPOSITION   : 0.87772
#ZPOSITION   : 37.36299
#EDSDET      : SD
##SPECIMEN   : GMIIIA K230[4][all]
##D2STDCMP   : K230,(O:24.49),(Al:2.65),(Si:14.02),(Zn:4.02),(Ba:8.96),(Ta:4.09),(Pb:41.77)
##DET_HASH   : 12273538-fd48-a23f-0a19-f1e6fa85caef
##CALIB_HASH : 6abaa72c-aa41-8738-0be9-f592914732f3
##WORKING    : 15.0 mm
##DET_NAME   : EDAX All
##DET_MODE   : MediumLE
#SPECTRUM    :
25,
488,
12908,
9334,
43791,
7856,
7538,
17372,
7790,
8021,
9491,
15094,
47808,
28559,
7483,
6463,
11016,
69211,
13249,
8292,
4461,
4717,
5411,
4330,
4091,
4164,
3996,
3918,
3914,
3788,
3678,
4034,
11094,
3358,
4590,
5264,
3248,
4166,
2892,
3009,
2900,
2740,
2561,
2475,
2348,
2289,
2231,
2199,
1931,
1960,
1866,
1936,
1852,
1834,
1755,
1659,
1544,
1616,
2153,
1519,
1466,
2029,
2407,
1269,
1227,
1139,
1228,
1297,
1234,
1227,
979,
937,
901,
810,
848,
1402,
1018,
776,
702,
650,
608,
535,
554,
526,
501,
475,
413,
411,
380,
357,
432,
314,
285,
234,
202,
232,
189,
165,
162,
112,
111,
97,
94,
56,
47,
32,
16,
9,
5,
3,
3,
5,
1,
2,
1,
3,
0,
1,
1,
4,
1,
3,
2,
1,
3,
1,
0,
0,
2,
0,
1,
0,
2,
1,
1,
0,
2,
0,
2,
0,
0,
0,
1,
1,
1,
0,
0,
0,
0,
0,
0,
0,
1,
0,
0,
0,
0,
1,
0,
0,
0,
0,
0,
0,
0,
0,
0,
0,
0,
0,
0,
0,
0,
0,
0,
0,
0,
0,
0,
0,
0,
0,
0,
0,
0,
0,
0,
0,
0,
0,
0,
0,
0,
0,
0,
0,
0,
0,
0,
0,
0,
0,
0,
0,
0,
0,
0,
0,
0,
0,
0,
0,
0,
0,
0,
0,
0,
0,
0,
0,
0,
0,
0,
0,
0,
0,
0,
0,
0,
0,
0,
0,
0,
0,
0,
0,
0,
0,
0,
0,
0,
0,
0,
0,
0,
0,
0,
0,
0,
0,
0,
0,
0,
0,
0,
0,
0,
0,
0,
0,
0,
0,
0,
0,
0,
0,
0,
0,
0,
0,
0,
0,
0,
0,
0,
0,
0,
0,
0,
0,
0,
0,
0,
0,
0,
0,
0,
0,
0,
0,
0,
0,
0,
0,
#ENDOFDATA   :

File: GMIIIA K230[5][4].msa
#FORMAT      : EMSA/MAS Spectral Data File
#VERSION     : 1.0
#TITLE       : GMIIIA K230[5][all]
#DATE        : 22-SEP-2025
#TIME        : 14:37
#OWNER       : Unknown
#NPOINTS     : 4096
#NCOLUMNS    : 1
#XUNITS      : eV
#YUNITS      : counts
#DATATYPE    : Y
#XPERCHAN    : 9.99778
#OFFSET      : 1.69135
#BEAMKV      : 15
#SIGNALTYPE  : EDS
#ELEVANGLE   : 35
#AZIMANGLE   : 0
#LIVETIME    : 239.795
#REALTIME    : 258.53
#PROBECUR    : 1.21983
#TAUWIND     : 0
#TDEADLYR    : 0
#TACTLYR     : 0.045
#TALWIND     : 0.025
#CHOFFSET    : 0.0
#XLABEL      : Energy (eV)
#YLABEL      : Counts
#XPOSITION   : 3.91829
#YPOSITION   : 0.86622
#ZPOSITION   : 37.36299
#EDSDET      : SD
##SPECIMEN   : GMIIIA K230[5][all]
##D2STDCMP   : K230,(O:24.49),(Al:2.65),(Si:14.02),(Zn:4.02),(Ba:8.96),(Ta:4.09),(Pb:41.77)
##DET_HASH   : 12273538-fd48-a23f-0a19-f1e6fa85caef
##CALIB_HASH : 6abaa72c-aa41-8738-0be9-f592914732f3
##WORKING    : 15.0 mm
##DET_NAME   : EDAX All
##DET_MODE   : MediumLE
#SPECTRUM    :
30,
485,
12134,
9121,
43605,
7799,
7565,
17369,
7915,
7953,
9488,
15344,
47994,
28390,
7302,
6493,
11050,
68741,
13213,
8446,
4536,
4621,
5381,
4307,
4231,
4108,
3987,
3851,
3810,
3890,
3745,
4069,
11270,
3425,
4612,
5135,
3270,
4079,
2855,
2939,
2901,
2720,
2542,
2407,
2242,
2333,
2171,
2085,
2081,
1918,
1944,
1832,
1879,
1728,
1735,
1635,
1632,
1686,
2277,
1583,
1393,
2005,
2316,
1299,
1223,
1126,
1294,
1279,
1185,
1217,
985,
959,
859,
816,
904,
1468,
963,
763,
663,
616,
628,
580,
552,
494,
452,
435,
418,
390,
331,
361,
407,
317,
247,
266,
233,
211,
175,
156,
175,
141,
132,
111,
88,
59,
41,
25,
24,
3,
3,
5,
1,
1,
1,
2,
3,
1,
2,
2,
1,
0,
1,
1,
1,
0,
2,
0,
0,
1,
1,
1,
1,
2,
0,
1,
0,
0,
0,
0,
0,
0,
0,
0,
0,
0,
0,
0,
1,
0,
1,
2,
0,
0,
0,
0,
0,
0,
0,
0,
0,
0,
0,
0,
0,
0,
1,
0,
0,
0,
0,
0,
0,
1,
0,
0,
0,
0,
0,
0,
0,
0,
0,
0,
0,
0,
0,
0,
0,
0,
0,
0,
0,
0,
0,
0,
0,
0,
0,
0,
0,
0,
0,
0,
0,
0,
0,
0,
0,
0,
0,
0,
0,
0,
0,
0,
0,
0,
0,
0,
0,
0,
0,
0,
0,
0,
0,
0,
0,
0,
0,
0,
0,
0,
0,
0,
0,
0,
0,
0,
0,
0,
0,
0,
0,
0,
0,
0,
0,
0,
0,
0,
0,
0,
0,
0,
0,
0,
0,
0,
0,
0,
0,
0,
0,
0,
0,
0,
0,
0,
0,
0,
0,
0,
0,
0,
0,
0,
0,
0,
0,
0,
0,
0,
0,
0,
0,
0,
0,
0,
0,
0,
0,
0,
0,
0,
#ENDOFDATA   :

File: GMIIIA K230[6][4].msa
#FORMAT      : EMSA/MAS Spectral Data File
#VERSION     : 1.0
#TITLE       : GMIIIA K230[6][all]
#DATE        : 22-SEP-2025
#TIME        : 14:38
#OWNER       : Unknown
#NPOINTS     : 4096
#NCOLUMNS    : 1
#XUNITS      : eV
#YUNITS      : counts
#DATATYPE    : Y
#XPERCHAN    : 9.99778
#OFFSET      : 1.69135
#BEAMKV      : 15
#SIGNALTYPE  : EDS
#ELEVANGLE   : 35
#AZIMANGLE   : 0
#LIVETIME    : 239.9195
#REALTIME    : 258.728
#PROBECUR    : 1.21983
#TAUWIND     : 0
#TDEADLYR    : 0
#TACTLYR     : 0.045
#TALWIND     : 0.025
#CHOFFSET    : 0.0
#XLABEL      : Energy (eV)
#YLABEL      : Counts
#XPOSITION   : 3.79863
#YPOSITION   : 0.90378
#ZPOSITION   : 37.36299
#EDSDET      : SD
##SPECIMEN   : GMIIIA K230[6][all]
##D2STDCMP   : K230,(O:24.49),(Al:2.65),(Si:14.02),(Zn:4.02),(Ba:8.96),(Ta:4.09),(Pb:41.77)
##DET_HASH   : 12273538-fd48-a23f-0a19-f1e6fa85caef
##CALIB_HASH : 6abaa72c-aa41-8738-0be9-f592914732f3
##WORKING    : 15.0 mm
##DET_NAME   : EDAX All
##DET_MODE   : MediumLE
#SPECTRUM    :
35,
530,
13090,
9359,
43904,
7713,
7691,
17552,
7868,
8031,
9523,
15404,
47888,
28086,
7725,
6677,
11108,
69184,
13317,
8463,
4533,
4696,
5291,
4411,
4166,
4027,
3900,
3828,
3803,
3574,
3594,
3869,
10972,
3349,
4697,
5294,
3257,
4170,
2844,
3026,
2955,
2581,
2561,
2569,
2344,
2293,
2288,
2082,
1983,
2064,
1943,
1921,
1791,
1723,
1693,
1599,
1604,
1557,
2089,
1575,
1410,
1984,
2449,
1298,
1191,
1180,
1265,
1221,
1275,
1197,
945,
916,
817,
808,
860,
1435,
1007,
712,
673,
619,
614,
580,
544,
498,
477,
476,
428,
428,
339,
389,
494,
335,
277,
246,
222,
186,
177,
166,
144,
127,
94,
99,
79,
61,
48,
22,
17,
5,
2,
0,
1,
5,
1,
2,
0,
1,
3,
2,
0,
0,
2,
0,
0,
2,
0,
0,
3,
2,
0,
1,
1,
0,
0,
0,
1,
0,
1,
0,
0,
0,
0,
0,
0,
1,
0,
0,
0,
0,
0,
0,
2,
0,
0,
0,
0,
0,
0,
0,
0,
0,
0,
0,
0,
0,
0,
0,
0,
0,
0,
0,
0,
0,
0,
0,
0,
0,
0,
0,
0,
0,
0,
0,
0,
0,
0,
0,
0,
0,
0,
0,
0,
0,
0,
0,
0,
0,
0,
0,
0,
0,
0,
0,
0,
0,
0,
0,
0,
0,
0,
0,
0,
0,
0,
0,
0,
0,
0,
0,
0,
0,
0,
0,
0,
0,
0,
0,
0,
0,
0,
0,
0,
0,
0,
0,
0,
0,
0,
0,
0,
0,
0,
0,
0,
0,
0,
0,
0,
0,
0,
0,
0,
0,
0,
0,
0,
0,
0,
0,
0,
0,
0,
0,
0,
0,
0,
0,
0,
0,
0,
0,
0,
0,
0,
0,
0,
0,
0,
0,
0,
0,
0,
0,
0,
0,
0,
0,
0,
0,
0,
0,
0,
0,
0,
0,
#ENDOFDATA   :

File: GMIIIA K240[0][4].msa
#FORMAT      : EMSA/MAS Spectral Data File
#VERSION     : 1.0
#TITLE       : GMIIIA K240[0][all]
#DATE        : 22-SEP-2025
#TIME        : 15:12
#OWNER       : Unknown
#NPOINTS     : 4096
#NCOLUMNS    : 1
#XUNITS      : eV
#YUNITS      : counts
#DATATYPE    : Y
#XPERCHAN    : 9.99778
#OFFSET      : 1.69135
#BEAMKV      : 15
#SIGNALTYPE  : EDS
#ELEVANGLE   : 35
#AZIMANGLE   : 0
#LIVETIME    : 239.964
#REALTIME    : 256.035
#PROBECUR    : 1.21732
#TAUWIND     : 0
#TDEADLYR    : 0
#TACTLYR     : 0.045
#TALWIND     : 0.025
#CHOFFSET    : 0.0
#XLABEL      : Energy (eV)
#YLABEL      : Counts
#XPOSITION   : 11.36222
#YPOSITION   : 1.6927
#ZPOSITION   : 37.36299
#EDSDET      : SD
##SPECIMEN   : GMIIIA K240[0][all]
##D2STDCMP   : K240,(O:34.0),(Mg:3.02),(Si:18.7),(Ti:6.0),(Zn:4.02),(Zr:7.4),(Ba:26.87)
##DET_HASH   : 12273538-fd48-a23f-0a19-f1e6fa85caef
##CALIB_HASH : 6abaa72c-aa41-8738-0be9-f592914732f3
##WORKING    : 15.0 mm
##DET_NAME   : EDAX All
##DET_MODE   : MediumLE
#SPECTRUM    :
29,
400,
9041,
13714,
64051,
5163,
5940,
14678,
5665,
23002,
5636,
6238,
44231,
23292,
7024,
15263,
5366,
3966,
4043,
3915,
3770,
3475,
3445,
3349,
3069,
3193,
2912,
2818,
3450,
2742,
2638,
4188,
37248,
3928,
6617,
10037,
3011,
5556,
1945,
2429,
2443,
1907,
1835,
1651,
1365,
1374,
1386,
1314,
1249,
1227,
1230,
1165,
1149,
1070,
1027,
1054,
985,
920,
896,
886,
912,
1313,
1684,
725,
687,
726,
649,
679,
800,
689,
585,
553,
523,
466,
479,
428,
437,
385,
386,
372,
364,
334,
311,
319,
287,
225,
228,
212,
197,
196,
162,
160,
143,
138,
119,
115,
108,
76,
52,
63,
59,
43,
41,
34,
29,
22,
9,
4,
1,
1,
3,
2,
0,
0,
0,
4,
0,
1,
0,
0,
0,
1,
1,
1,
2,
0,
0,
1,
0,
1,
0,
0,
0,
0,
0,
0,
0,
0,
0,
1,
0,
0,
0,
0,
0,
0,
0,
0,
0,
0,
0,
1,
0,
0,
0,
0,
0,
0,
0,
0,
0,
0,
0,
0,
0,
0,
0,
0,
0,
0,
0,
0,
0,
0,
0,
0,
0,
0,
0,
0,
0,
0,
0,
0,
0,
0,
0,
0,
0,
0,
0,
0,
0,
0,
0,
0,
0,
0,
0,
0,
0,
0,
0,
0,
0,
0,
0,
0,
0,
0,
0,
0,
0,
0,
0,
0,
0,
0,
0,
0,
0,
0,
0,
0,
0,
0,
0,
0,
0,
0,
0,
0,
0,
0,
0,
0,
0,
0,
0,
0,
0,
0,
0,
0,
0,
0,
0,
0,
0,
0,
0,
0,
0,
0,
0,
0,
0,
0,
0,
0,
0,
0,
0,
0,
0,
0,
0,
0,
0,
0,
0,
0,
0,
0,
0,
0,
0,
0,
0,
0,
0,
0,
0,
0,
0,
0,
0,
0,
0,
0,
0,
0,
0,
0,
#ENDOFDATA   :