Folder: spex_quant/N132962/Quantification/15 keV/GMIIIA (part 16)

File: GMIIIA K1235[2][4].msa
#FORMAT      : EMSA/MAS Spectral Data File
#VERSION     : 1.0
#TITLE       : GMIIIA K1235[2][all]
#DATE        : 22-SEP-2025
#TIME        : 23:17
#OWNER       : Unknown
#NPOINTS     : 4096
#NCOLUMNS    : 1
#XUNITS      : eV
#YUNITS      : counts
#DATATYPE    : Y
#XPERCHAN    : 9.99778
#OFFSET      : 1.69135
#BEAMKV      : 15
#SIGNALTYPE  : EDS
#ELEVANGLE   : 35
#AZIMANGLE   : 0
#LIVETIME    : 240.006
#REALTIME    : 255.918
#PROBECUR    : 1.21388
#TAUWIND     : 0
#TDEADLYR    : 0
#TACTLYR     : 0.045
#TALWIND     : 0.025
#CHOFFSET    : 0.0
#XLABEL      : Energy (eV)
#YLABEL      : Counts
#XPOSITION   : 9.30153
#YPOSITION   : 19.00127
#ZPOSITION   : 37.36299
#EDSDET      : SD
##SPECIMEN   : GMIIIA K1235[2][all]
##D2STDCMP   : K1235,(O:39.17),(Al:8.86),(Si:21.16),(Ca:12.15),(Pd:1.74),(Ba:15.23),(Hf:1.7)
##DET_HASH   : 12273538-fd48-a23f-0a19-f1e6fa85caef
##CALIB_HASH : 6abaa72c-aa41-8738-0be9-f592914732f3
##WORKING    : 15.0 mm
##DET_NAME   : EDAX All
##DET_MODE   : MediumLE
#SPECTRUM    :
22,
272,
10514,
8535,
64069,
4130,
4781,
5640,
5060,
5606,
9883,
28400,
52600,
24227,
4140,
3438,
3844,
3290,
3164,
3217,
3103,
2917,
2852,
2836,
2640,
2824,
23651,
8973,
3397,
5355,
2034,
2771,
14898,
1937,
3935,
4970,
1927,
3519,
1443,
1796,
1727,
1483,
1372,
1173,
1154,
1076,
1086,
1025,
962,
919,
922,
886,
859,
834,
760,
767,
911,
810,
667,
692,
637,
646,
558,
548,
601,
548,
477,
493,
469,
447,
397,
391,
389,
342,
322,
333,
320,
311,
255,
242,
237,
221,
229,
207,
182,
166,
184,
157,
152,
134,
103,
117,
93,
114,
66,
65,
65,
73,
47,
57,
53,
35,
28,
34,
12,
12,
10,
3,
1,
1,
0,
0,
0,
1,
0,
0,
0,
1,
0,
0,
0,
1,
0,
0,
0,
1,
0,
0,
0,
0,
0,
1,
0,
0,
0,
0,
0,
0,
0,
0,
0,
0,
0,
0,
0,
0,
0,
0,
0,
0,
0,
0,
0,
0,
0,
0,
0,
0,
0,
0,
0,
0,
0,
0,
0,
0,
0,
0,
0,
0,
0,
0,
0,
0,
0,
0,
0,
0,
0,
0,
0,
0,
0,
0,
0,
0,
0,
0,
0,
0,
0,
0,
0,
0,
0,
0,
0,
0,
0,
0,
0,
0,
0,
0,
0,
0,
0,
0,
0,
0,
0,
0,
0,
0,
0,
0,
0,
0,
0,
0,
0,
0,
0,
0,
0,
0,
0,
0,
0,
0,
0,
0,
0,
0,
0,
0,
0,
0,
0,
0,
0,
0,
0,
0,
0,
0,
0,
0,
0,
0,
0,
0,
0,
0,
0,
0,
0,
0,
0,
0,
0,
0,
0,
0,
0,
0,
0,
0,
0,
0,
0,
0,
0,
0,
0,
0,
0,
0,
0,
0,
0,
0,
0,
0,
0,
0,
0,
0,
0,
0,
0,
0,
0,
0,
#ENDOFDATA   :

File: GMIIIA K1235[3][4].msa
#FORMAT      : EMSA/MAS Spectral Data File
#VERSION     : 1.0
#TITLE       : GMIIIA K1235[3][all]
#DATE        : 22-SEP-2025
#TIME        : 23:18
#OWNER       : Unknown
#NPOINTS     : 4096
#NCOLUMNS    : 1
#XUNITS      : eV
#YUNITS      : counts
#DATATYPE    : Y
#XPERCHAN    : 9.99778
#OFFSET      : 1.69135
#BEAMKV      : 15
#SIGNALTYPE  : EDS
#ELEVANGLE   : 35
#AZIMANGLE   : 0
#LIVETIME    : 240.063
#REALTIME    : 255.983
#PROBECUR    : 1.21388
#TAUWIND     : 0
#TDEADLYR    : 0
#TACTLYR     : 0.045
#TALWIND     : 0.025
#CHOFFSET    : 0.0
#XLABEL      : Energy (eV)
#YLABEL      : Counts
#XPOSITION   : 9.18406
#YPOSITION   : 18.99161
#ZPOSITION   : 37.36299
#EDSDET      : SD
##SPECIMEN   : GMIIIA K1235[3][all]
##D2STDCMP   : K1235,(O:39.17),(Al:8.86),(Si:21.16),(Ca:12.15),(Pd:1.74),(Ba:15.23),(Hf:1.7)
##DET_HASH   : 12273538-fd48-a23f-0a19-f1e6fa85caef
##CALIB_HASH : 6abaa72c-aa41-8738-0be9-f592914732f3
##WORKING    : 15.0 mm
##DET_NAME   : EDAX All
##DET_MODE   : MediumLE
#SPECTRUM    :
24,
264,
10949,
8468,
63662,
4278,
4832,
5894,
5087,
5832,
9898,
28500,
53138,
24114,
4020,
3364,
3733,
3418,
3289,
3183,
3040,
2852,
2731,
2831,
2566,
2921,
23610,
9271,
3431,
5218,
2010,
2747,
14755,
1993,
3892,
4952,
1991,
3537,
1389,
1760,
1683,
1495,
1337,
1184,
1106,
1087,
1049,
1034,
956,
943,
923,
844,
797,
835,
781,
804,
957,
779,
644,
661,
618,
598,
569,
539,
655,
550,
520,
498,
475,
411,
448,
403,
363,
364,
333,
358,
316,
298,
271,
247,
235,
210,
208,
182,
173,
181,
156,
165,
153,
146,
139,
108,
107,
94,
70,
70,
73,
57,
57,
31,
42,
27,
26,
19,
15,
7,
6,
1,
2,
0,
0,
1,
1,
0,
1,
0,
0,
2,
0,
0,
0,
0,
1,
0,
0,
0,
0,
0,
0,
0,
0,
1,
0,
0,
0,
0,
0,
0,
0,
0,
1,
0,
0,
0,
0,
0,
0,
0,
0,
0,
1,
0,
0,
0,
0,
0,
0,
0,
0,
0,
0,
0,
0,
0,
0,
0,
0,
0,
0,
0,
0,
0,
0,
0,
0,
0,
0,
0,
0,
0,
0,
0,
0,
0,
0,
0,
0,
0,
0,
0,
0,
0,
0,
0,
0,
0,
0,
0,
0,
0,
0,
0,
0,
0,
0,
0,
0,
0,
0,
0,
0,
0,
0,
0,
0,
0,
0,
0,
0,
0,
0,
0,
0,
0,
0,
0,
0,
0,
0,
0,
0,
0,
0,
0,
0,
0,
0,
0,
0,
0,
0,
0,
0,
0,
0,
0,
0,
0,
0,
0,
0,
0,
0,
0,
0,
0,
0,
0,
0,
0,
0,
0,
0,
0,
0,
0,
0,
0,
0,
0,
0,
0,
0,
0,
0,
0,
0,
0,
0,
0,
0,
0,
0,
0,
0,
0,
0,
0,
0,
0,
0,
0,
0,
0,
#ENDOFDATA   :

File: GMIIIA K1235[4][4].msa
#FORMAT      : EMSA/MAS Spectral Data File
#VERSION     : 1.0
#TITLE       : GMIIIA K1235[4][all]
#DATE        : 22-SEP-2025
#TIME        : 23:19
#OWNER       : Unknown
#NPOINTS     : 4096
#NCOLUMNS    : 1
#XUNITS      : eV
#YUNITS      : counts
#DATATYPE    : Y
#XPERCHAN    : 9.99778
#OFFSET      : 1.69135
#BEAMKV      : 15
#SIGNALTYPE  : EDS
#ELEVANGLE   : 35
#AZIMANGLE   : 0
#LIVETIME    : 240.014
#REALTIME    : 255.9087
#PROBECUR    : 1.21388
#TAUWIND     : 0
#TDEADLYR    : 0
#TACTLYR     : 0.045
#TALWIND     : 0.025
#CHOFFSET    : 0.0
#XLABEL      : Energy (eV)
#YLABEL      : Counts
#XPOSITION   : 9.32632
#YPOSITION   : 18.97791
#ZPOSITION   : 37.36299
#EDSDET      : SD
##SPECIMEN   : GMIIIA K1235[4][all]
##D2STDCMP   : K1235,(O:39.17),(Al:8.86),(Si:21.16),(Ca:12.15),(Pd:1.74),(Ba:15.23),(Hf:1.7)
##DET_HASH   : 12273538-fd48-a23f-0a19-f1e6fa85caef
##CALIB_HASH : 6abaa72c-aa41-8738-0be9-f592914732f3
##WORKING    : 15.0 mm
##DET_NAME   : EDAX All
##DET_MODE   : MediumLE
#SPECTRUM    :
33,
305,
10773,
8385,
63990,
4186,
4696,
5796,
5154,
5639,
9932,
28547,
52686,
23886,
4038,
3519,
3858,
3331,
3224,
3143,
3008,
2854,
2812,
2880,
2587,
2793,
23638,
9057,
3424,
5352,
2131,
2690,
14368,
1865,
3881,
5000,
1940,
3441,
1462,
1780,
1710,
1494,
1327,
1196,
1143,
1035,
1088,
1052,
972,
944,
942,
857,
824,
805,
824,
736,
971,
763,
653,
629,
615,
606,
561,
506,
574,
511,
485,
514,
451,
448,
422,
407,
376,
348,
330,
368,
317,
290,
274,
229,
213,
199,
222,
209,
169,
176,
179,
149,
161,
141,
107,
108,
108,
79,
77,
80,
72,
57,
59,
54,
49,
35,
24,
21,
10,
7,
6,
3,
0,
1,
0,
2,
0,
1,
1,
0,
0,
1,
1,
0,
0,
0,
1,
0,
2,
0,
0,
2,
0,
0,
0,
0,
0,
0,
0,
0,
0,
0,
0,
0,
0,
0,
0,
0,
0,
0,
0,
0,
0,
1,
0,
0,
0,
0,
0,
0,
0,
0,
0,
0,
0,
0,
0,
0,
0,
0,
0,
0,
0,
0,
0,
0,
0,
0,
0,
0,
0,
0,
0,
0,
0,
0,
0,
0,
0,
0,
0,
0,
0,
0,
0,
0,
0,
0,
0,
0,
0,
0,
0,
0,
0,
0,
0,
0,
0,
0,
0,
0,
0,
0,
0,
0,
0,
0,
0,
0,
0,
0,
0,
0,
0,
0,
0,
0,
0,
0,
0,
0,
0,
0,
0,
0,
0,
0,
0,
0,
0,
0,
0,
0,
0,
0,
0,
0,
0,
0,
0,
0,
0,
0,
0,
0,
0,
0,
0,
0,
0,
0,
0,
0,
0,
0,
0,
0,
0,
0,
0,
0,
0,
0,
0,
0,
0,
0,
0,
0,
0,
0,
0,
0,
1,
0,
0,
0,
0,
0,
0,
0,
0,
0,
0,
0,
0,
0,
#ENDOFDATA   :

File: GMIIIA K1235[5][4].msa
#FORMAT      : EMSA/MAS Spectral Data File
#VERSION     : 1.0
#TITLE       : GMIIIA K1235[5][all]
#DATE        : 22-SEP-2025
#TIME        : 23:20
#OWNER       : Unknown
#NPOINTS     : 4096
#NCOLUMNS    : 1
#XUNITS      : eV
#YUNITS      : counts
#DATATYPE    : Y
#XPERCHAN    : 9.99778
#OFFSET      : 1.69135
#BEAMKV      : 15
#SIGNALTYPE  : EDS
#ELEVANGLE   : 35
#AZIMANGLE   : 0
#LIVETIME    : 240.069
#REALTIME    : 255.972
#PROBECUR    : 1.21388
#TAUWIND     : 0
#TDEADLYR    : 0
#TACTLYR     : 0.045
#TALWIND     : 0.025
#CHOFFSET    : 0.0
#XLABEL      : Energy (eV)
#YLABEL      : Counts
#XPOSITION   : 9.20461
#YPOSITION   : 18.98551
#ZPOSITION   : 37.36299
#EDSDET      : SD
##SPECIMEN   : GMIIIA K1235[5][all]
##D2STDCMP   : K1235,(O:39.17),(Al:8.86),(Si:21.16),(Ca:12.15),(Pd:1.74),(Ba:15.23),(Hf:1.7)
##DET_HASH   : 12273538-fd48-a23f-0a19-f1e6fa85caef
##CALIB_HASH : 6abaa72c-aa41-8738-0be9-f592914732f3
##WORKING    : 15.0 mm
##DET_NAME   : EDAX All
##DET_MODE   : MediumLE
#SPECTRUM    :
24,
279,
10983,
8434,
63454,
4410,
4774,
5687,
5022,
5661,
9752,
28292,
52924,
24253,
3971,
3406,
3747,
3332,
3136,
3220,
3037,
2928,
2900,
2843,
2680,
2766,
23533,
9249,
3480,
5295,
1947,
2738,
14678,
1845,
4023,
5067,
1993,
3538,
1520,
1784,
1727,
1464,
1359,
1251,
1167,
1087,
1149,
1005,
936,
924,
934,
892,
783,
839,
758,
776,
960,
805,
643,
653,
643,
570,
578,
577,
605,
573,
519,
474,
448,
424,
397,
361,
400,
335,
331,
329,
330,
278,
289,
294,
249,
235,
217,
196,
198,
167,
154,
156,
137,
137,
114,
129,
103,
93,
79,
92,
73,
70,
55,
48,
31,
39,
19,
25,
17,
12,
5,
2,
1,
0,
0,
0,
0,
0,
0,
0,
0,
0,
0,
0,
0,
1,
0,
1,
0,
0,
0,
0,
0,
1,
0,
1,
0,
0,
0,
0,
0,
0,
0,
0,
0,
0,
0,
0,
0,
0,
0,
0,
0,
1,
0,
0,
0,
0,
0,
0,
0,
0,
0,
0,
0,
0,
0,
0,
0,
0,
0,
0,
0,
0,
0,
0,
0,
0,
0,
0,
0,
0,
0,
0,
0,
0,
0,
0,
0,
0,
0,
0,
0,
0,
0,
0,
0,
0,
0,
0,
0,
0,
0,
0,
0,
0,
0,
0,
0,
0,
0,
0,
0,
0,
0,
0,
0,
0,
0,
0,
0,
0,
0,
0,
0,
0,
0,
0,
0,
0,
0,
0,
0,
0,
0,
0,
0,
0,
0,
0,
0,
0,
0,
0,
0,
0,
0,
0,
0,
0,
0,
0,
0,
0,
0,
0,
0,
0,
0,
0,
0,
0,
0,
0,
0,
0,
0,
0,
0,
0,
0,
0,
0,
0,
0,
0,
0,
0,
0,
0,
0,
0,
0,
0,
0,
0,
0,
0,
0,
0,
0,
0,
0,
0,
0,
0,
0,
0,
#ENDOFDATA   :

File: GMIIIA K1235[6][4].msa
#FORMAT      : EMSA/MAS Spectral Data File
#VERSION     : 1.0
#TITLE       : GMIIIA K1235[6][all]
#DATE        : 22-SEP-2025
#TIME        : 23:21
#OWNER       : Unknown
#NPOINTS     : 4096
#NCOLUMNS    : 1
#XUNITS      : eV
#YUNITS      : counts
#DATATYPE    : Y
#XPERCHAN    : 9.99778
#OFFSET      : 1.69135
#BEAMKV      : 15
#SIGNALTYPE  : EDS
#ELEVANGLE   : 35
#AZIMANGLE   : 0
#LIVETIME    : 240.015
#REALTIME    : 255.916
#PROBECUR    : 1.21388
#TAUWIND     : 0
#TDEADLYR    : 0
#TACTLYR     : 0.045
#TALWIND     : 0.025
#CHOFFSET    : 0.0
#XLABEL      : Energy (eV)
#YLABEL      : Counts
#XPOSITION   : 9.24178
#YPOSITION   : 19.02388
#ZPOSITION   : 37.36299
#EDSDET      : SD
##SPECIMEN   : GMIIIA K1235[6][all]
##D2STDCMP   : K1235,(O:39.17),(Al:8.86),(Si:21.16),(Ca:12.15),(Pd:1.74),(Ba:15.23),(Hf:1.7)
##DET_HASH   : 12273538-fd48-a23f-0a19-f1e6fa85caef
##CALIB_HASH : 6abaa72c-aa41-8738-0be9-f592914732f3
##WORKING    : 15.0 mm
##DET_NAME   : EDAX All
##DET_MODE   : MediumLE
#SPECTRUM    :
23,
277,
10905,
8583,
63427,
4305,
4645,
5694,
5221,
5741,
9863,
28407,
52937,
24222,
3974,
3475,
3729,
3243,
3111,
3183,
3001,
2935,
2840,
2835,
2559,
2866,
23762,
9173,
3452,
5319,
1967,
2744,
14531,
1951,
3902,
5190,
1947,
3454,
1495,
1695,
1714,
1536,
1325,
1176,
1127,
1112,
1146,
998,
929,
919,
933,
906,
877,
829,
782,
728,
914,
708,
706,
638,
589,
647,
546,
564,
587,
529,
481,
505,
438,
391,
360,
416,
418,
373,
340,
319,
321,
312,
271,
254,
237,
223,
211,
215,
187,
158,
154,
165,
152,
159,
131,
111,
93,
98,
73,
59,
85,
58,
49,
52,
50,
26,
32,
21,
16,
10,
6,
3,
0,
0,
0,
1,
2,
0,
0,
0,
0,
0,
1,
0,
0,
0,
0,
0,
0,
0,
0,
0,
0,
0,
0,
0,
0,
0,
0,
0,
1,
0,
1,
0,
0,
0,
0,
0,
0,
0,
0,
0,
0,
0,
0,
0,
0,
0,
0,
0,
0,
0,
0,
0,
1,
0,
0,
0,
0,
0,
0,
0,
0,
0,
0,
0,
0,
0,
0,
0,
0,
0,
0,
0,
0,
0,
0,
0,
0,
0,
0,
0,
0,
0,
0,
0,
0,
0,
0,
0,
0,
0,
0,
0,
0,
0,
0,
0,
0,
0,
0,
0,
0,
0,
0,
0,
0,
0,
0,
0,
0,
0,
0,
0,
0,
0,
0,
0,
0,
0,
0,
0,
0,
0,
0,
0,
0,
0,
0,
0,
0,
0,
0,
0,
0,
0,
0,
0,
0,
0,
0,
0,
0,
0,
0,
0,
0,
0,
0,
0,
0,
0,
0,
0,
0,
0,
0,
0,
0,
0,
0,
0,
0,
0,
0,
0,
0,
0,
0,
0,
0,
0,
0,
0,
0,
0,
0,
0,
0,
0,
0,
0,
0,
0,
0,
0,
0,
0,
#ENDOFDATA   :

File: GMIIIA K1235[7][4].msa
#FORMAT      : EMSA/MAS Spectral Data File
#VERSION     : 1.0
#TITLE       : GMIIIA K1235[7][all]
#DATE        : 22-SEP-2025
#TIME        : 23:22
#OWNER       : Unknown
#NPOINTS     : 4096
#NCOLUMNS    : 1
#XUNITS      : eV
#YUNITS      : counts
#DATATYPE    : Y
#XPERCHAN    : 9.99778
#OFFSET      : 1.69135
#BEAMKV      : 15
#SIGNALTYPE  : EDS
#ELEVANGLE   : 35
#AZIMANGLE   : 0
#LIVETIME    : 240.042
#REALTIME    : 255.92
#PROBECUR    : 1.21388
#TAUWIND     : 0
#TDEADLYR    : 0
#TACTLYR     : 0.045
#TALWIND     : 0.025
#CHOFFSET    : 0.0
#XLABEL      : Energy (eV)
#YLABEL      : Counts
#XPOSITION   : 9.25745
#YPOSITION   : 18.99052
#ZPOSITION   : 37.36299
#EDSDET      : SD
##SPECIMEN   : GMIIIA K1235[7][all]
##D2STDCMP   : K1235,(O:39.17),(Al:8.86),(Si:21.16),(Ca:12.15),(Pd:1.74),(Ba:15.23),(Hf:1.7)
##DET_HASH   : 12273538-fd48-a23f-0a19-f1e6fa85caef
##CALIB_HASH : 6abaa72c-aa41-8738-0be9-f592914732f3
##WORKING    : 15.0 mm
##DET_NAME   : EDAX All
##DET_MODE   : MediumLE
#SPECTRUM    :
17,
271,
12468,
8518,
62571,
4374,
4656,
5768,
5142,
5673,
9661,
28579,
52916,
24156,
3861,
3433,
3902,
3281,
3171,
3217,
2983,
2939,
2864,
2838,
2565,
2884,
23469,
8994,
3452,
5245,
2100,
2648,
14582,
1915,
3920,
4951,
2017,
3425,
1536,
1818,
1722,
1512,
1339,
1237,
1114,
1107,
1070,
1030,
1006,
865,
913,
850,
788,
826,
813,
752,
913,
771,
656,
616,
575,
552,
571,
568,
645,
555,
497,
508,
458,
411,
400,
391,
374,
343,
345,
334,
328,
298,
282,
273,
220,
237,
213,
200,
185,
160,
159,
167,
144,
131,
124,
115,
103,
110,
81,
78,
69,
73,
70,
40,
31,
28,
28,
23,
18,
6,
5,
1,
1,
2,
0,
0,
0,
1,
0,
0,
0,
3,
0,
0,
2,
0,
0,
1,
0,
2,
0,
1,
0,
0,
0,
0,
0,
0,
0,
0,
0,
0,
0,
0,
0,
0,
0,
0,
0,
0,
0,
0,
0,
0,
0,
0,
0,
0,
0,
0,
0,
0,
0,
0,
0,
0,
0,
0,
0,
0,
0,
0,
0,
0,
0,
0,
0,
0,
0,
0,
0,
0,
0,
0,
0,
0,
0,
0,
0,
0,
0,
0,
0,
0,
0,
0,
0,
0,
0,
0,
0,
0,
0,
0,
0,
0,
0,
0,
0,
0,
0,
0,
0,
0,
0,
0,
0,
0,
0,
0,
0,
0,
0,
0,
0,
0,
0,
0,
0,
0,
0,
0,
0,
0,
0,
0,
0,
0,
0,
0,
0,
0,
0,
0,
0,
0,
0,
0,
0,
0,
0,
0,
0,
0,
0,
0,
0,
0,
0,
0,
0,
0,
0,
0,
0,
0,
0,
0,
0,
0,
0,
0,
0,
0,
0,
0,
0,
0,
0,
0,
0,
0,
0,
0,
0,
0,
0,
0,
0,
0,
0,
0,
0,
0,
0,
0,
0,
0,
#ENDOFDATA   :

File: GMIIIA K1235[8][4].msa
#FORMAT      : EMSA/MAS Spectral Data File
#VERSION     : 1.0
#TITLE       : GMIIIA K1235[8][all]
#DATE        : 22-SEP-2025
#TIME        : 23:23
#OWNER       : Unknown
#NPOINTS     : 4096
#NCOLUMNS    : 1
#XUNITS      : eV
#YUNITS      : counts
#DATATYPE    : Y
#XPERCHAN    : 9.99778
#OFFSET      : 1.69135
#BEAMKV      : 15
#SIGNALTYPE  : EDS
#ELEVANGLE   : 35
#AZIMANGLE   : 0
#LIVETIME    : 240.066
#REALTIME    : 255.97
#PROBECUR    : 1.21388
#TAUWIND     : 0
#TDEADLYR    : 0
#TACTLYR     : 0.045
#TALWIND     : 0.025
#CHOFFSET    : 0.0
#XLABEL      : Energy (eV)
#YLABEL      : Counts
#XPOSITION   : 9.24161
#YPOSITION   : 18.96833
#ZPOSITION   : 37.36299
#EDSDET      : SD
##SPECIMEN   : GMIIIA K1235[8][all]
##D2STDCMP   : K1235,(O:39.17),(Al:8.86),(Si:21.16),(Ca:12.15),(Pd:1.74),(Ba:15.23),(Hf:1.7)
##DET_HASH   : 12273538-fd48-a23f-0a19-f1e6fa85caef
##CALIB_HASH : 6abaa72c-aa41-8738-0be9-f592914732f3
##WORKING    : 15.0 mm
##DET_NAME   : EDAX All
##DET_MODE   : MediumLE
#SPECTRUM    :
28,
272,
10584,
8516,
63868,
4124,
4721,
5784,
5135,
5603,
9807,
28447,
52841,
24094,
3968,
3461,
3793,
3260,
3127,
3065,
2889,
2874,
2819,
2840,
2581,
2832,
23791,
9090,
3419,
5151,
1995,
2761,
14507,
1985,
3935,
4961,
1957,
3553,
1445,
1806,
1643,
1459,
1286,
1200,
1131,
1058,
1046,
1096,
944,
904,
909,
892,
828,
850,
773,
737,
911,
854,
668,
667,
631,
592,
561,
574,
539,
516,
531,
507,
473,
420,
399,
396,
379,
347,
334,
346,
312,
283,
282,
220,
223,
230,
222,
218,
170,
197,
159,
146,
155,
133,
130,
125,
111,
92,
93,
82,
77,
57,
55,
48,
46,
33,
15,
20,
15,
9,
4,
1,
0,
0,
1,
1,
1,
1,
0,
0,
0,
0,
0,
0,
0,
0,
1,
0,
0,
1,
0,
1,
1,
0,
0,
1,
0,
0,
0,
1,
0,
0,
0,
0,
0,
0,
0,
0,
0,
0,
1,
0,
0,
0,
0,
0,
1,
0,
0,
0,
0,
0,
0,
0,
0,
0,
0,
0,
0,
0,
0,
0,
0,
0,
0,
0,
0,
0,
0,
0,
0,
0,
0,
0,
0,
0,
0,
0,
0,
0,
0,
0,
0,
0,
0,
0,
0,
0,
0,
0,
0,
0,
0,
0,
0,
0,
0,
0,
0,
0,
0,
0,
0,
0,
0,
0,
0,
0,
0,
0,
0,
0,
0,
0,
0,
0,
0,
0,
0,
0,
0,
0,
0,
0,
0,
0,
0,
0,
0,
0,
0,
0,
0,
0,
0,
0,
0,
0,
0,
0,
0,
0,
0,
0,
0,
0,
0,
0,
0,
0,
0,
0,
0,
0,
0,
0,
0,
0,
0,
0,
0,
0,
0,
0,
0,
0,
0,
0,
0,
0,
0,
0,
0,
0,
0,
0,
0,
0,
0,
0,
0,
0,
0,
0,
0,
0,
0,
0,
#ENDOFDATA   :

File: GMIIIA K1236[0][4].msa
#FORMAT      : EMSA/MAS Spectral Data File
#VERSION     : 1.0
#TITLE       : GMIIIA K1236[0][all]
#DATE        : 22-SEP-2025
#TIME        : 23:04
#OWNER       : Unknown
#NPOINTS     : 4096
#NCOLUMNS    : 1
#XUNITS      : eV
#YUNITS      : counts
#DATATYPE    : Y
#XPERCHAN    : 9.99778
#OFFSET      : 1.69135
#BEAMKV      : 15
#SIGNALTYPE  : EDS
#ELEVANGLE   : 35
#AZIMANGLE   : 0
#LIVETIME    : 239.92
#REALTIME    : 258.861
#PROBECUR    : 1.21388
#TAUWIND     : 0
#TDEADLYR    : 0
#TACTLYR     : 0.045
#TALWIND     : 0.025
#CHOFFSET    : 0.0
#XLABEL      : Energy (eV)
#YLABEL      : Counts
#XPOSITION   : 7.20397
#YPOSITION   : 19.00859
#ZPOSITION   : 37.36299
#EDSDET      : SD
##SPECIMEN   : GMIIIA K1236[0][all]
##D2STDCMP   : K1236,(O:21.27),(Sc:0.65),(Ge:40.95),(Pb:37.13)
##DET_HASH   : 12273538-fd48-a23f-0a19-f1e6fa85caef
##CALIB_HASH : 6abaa72c-aa41-8738-0be9-f592914732f3
##WORKING    : 15.0 mm
##DET_NAME   : EDAX All
##DET_MODE   : MediumLE
#SPECTRUM    :
18,
489,
11202,
8754,
36311,
7550,
8409,
11541,
35734,
53852,
6391,
6485,
7100,
10959,
6431,
6485,
10638,
63351,
12599,
8258,
4709,
5041,
5475,
4626,
4341,
4320,
4032,
3981,
3988,
5197,
3858,
3716,
3852,
3476,
3396,
3347,
3095,
3072,
2925,
2788,
2726,
2678,
2618,
2551,
2467,
2409,
2378,
2212,
2104,
2003,
2044,
1937,
1865,
1892,
1814,
1707,
1659,
1560,
1569,
1491,
1444,
1448,
1289,
1320,
1323,
1246,
1174,
1146,
1152,
1150,
5222,
5284,
1077,
872,
944,
1486,
1114,
783,
1455,
1204,
608,
542,
563,
528,
520,
498,
435,
420,
411,
370,
440,
364,
279,
249,
229,
221,
187,
183,
169,
130,
120,
107,
94,
71,
60,
33,
16,
6,
7,
1,
3,
1,
3,
1,
2,
4,
2,
5,
3,
0,
1,
0,
2,
4,
2,
0,
0,
1,
0,
2,
0,
0,
0,
0,
1,
1,
1,
1,
0,
1,
2,
0,
0,
0,
0,
1,
0,
1,
1,
2,
0,
1,
0,
0,
0,
1,
1,
0,
0,
0,
0,
0,
0,
0,
0,
0,
0,
0,
0,
0,
0,
0,
0,
1,
0,
0,
0,
0,
0,
0,
0,
0,
0,
0,
0,
0,
0,
0,
0,
0,
0,
0,
0,
0,
0,
0,
0,
0,
0,
0,
0,
0,
0,
0,
0,
0,
0,
0,
0,
0,
0,
0,
0,
0,
0,
0,
0,
0,
0,
0,
0,
0,
0,
0,
0,
0,
0,
0,
0,
0,
0,
0,
0,
0,
0,
0,
0,
0,
0,
0,
0,
0,
0,
0,
0,
0,
0,
0,
0,
0,
0,
0,
0,
0,
0,
0,
0,
0,
0,
0,
0,
0,
0,
0,
0,
0,
0,
0,
0,
0,
0,
0,
0,
0,
0,
0,
0,
0,
0,
0,
0,
0,
0,
0,
0,
0,
0,
0,
0,
0,
0,
0,
0,
0,
#ENDOFDATA   :

File: GMIIIA K1236[1][4].msa
#FORMAT      : EMSA/MAS Spectral Data File
#VERSION     : 1.0
#TITLE       : GMIIIA K1236[1][all]
#DATE        : 22-SEP-2025
#TIME        : 23:05
#OWNER       : Unknown
#NPOINTS     : 4096
#NCOLUMNS    : 1
#XUNITS      : eV
#YUNITS      : counts
#DATATYPE    : Y
#XPERCHAN    : 9.99778
#OFFSET      : 1.69135
#BEAMKV      : 15
#SIGNALTYPE  : EDS
#ELEVANGLE   : 35
#AZIMANGLE   : 0
#LIVETIME    : 239.9036
#REALTIME    : 258.863
#PROBECUR    : 1.21388
#TAUWIND     : 0
#TDEADLYR    : 0
#TACTLYR     : 0.045
#TALWIND     : 0.025
#CHOFFSET    : 0.0
#XLABEL      : Energy (eV)
#YLABEL      : Counts
#XPOSITION   : 7.20446
#YPOSITION   : 18.97139
#ZPOSITION   : 37.36299
#EDSDET      : SD
##SPECIMEN   : GMIIIA K1236[1][all]
##D2STDCMP   : K1236,(O:21.27),(Sc:0.65),(Ge:40.95),(Pb:37.13)
##DET_HASH   : 12273538-fd48-a23f-0a19-f1e6fa85caef
##CALIB_HASH : 6abaa72c-aa41-8738-0be9-f592914732f3
##WORKING    : 15.0 mm
##DET_NAME   : EDAX All
##DET_MODE   : MediumLE
#SPECTRUM    :
28,
455,
11263,
8784,
36321,
7762,
8478,
11828,
35866,
53344,
6326,
6414,
7084,
10783,
6415,
6496,
10538,
63501,
12724,
8152,
4814,
5001,
5582,
4567,
4246,
4298,
4189,
3982,
3938,
5191,
3740,
3720,
3980,
3364,
3372,
3250,
3100,
3152,
2917,
3013,
2837,
2696,
2651,
2514,
2450,
2340,
2393,
2297,
2048,
2079,
1993,
1936,
1880,
1857,
1771,
1776,
1683,
1645,
1579,
1537,
1471,
1383,
1325,
1291,
1213,
1240,
1208,
1155,
1057,
1192,
5431,
5335,
954,
883,
912,
1470,
1135,
802,
1447,
1214,
622,
548,
516,
504,
516,
484,
436,
434,
363,
414,
445,
320,
306,
280,
237,
210,
207,
190,
148,
140,
118,
112,
88,
74,
57,
39,
21,
12,
3,
5,
2,
4,
3,
2,
3,
1,
1,
1,
3,
0,
1,
2,
1,
1,
1,
3,
0,
1,
0,
2,
1,
0,
1,
2,
0,
0,
0,
0,
0,
0,
0,
3,
0,
0,
0,
1,
0,
0,
1,
3,
1,
0,
0,
1,
0,
0,
0,
0,
1,
0,
0,
0,
0,
0,
0,
0,
0,
0,
0,
0,
0,
0,
0,
0,
0,
0,
0,
0,
0,
0,
0,
0,
0,
0,
0,
0,
0,
0,
0,
0,
0,
0,
0,
0,
0,
0,
0,
0,
0,
0,
0,
0,
0,
0,
0,
0,
0,
0,
0,
0,
0,
0,
0,
0,
0,
0,
0,
0,
0,
0,
0,
0,
0,
0,
0,
0,
0,
0,
0,
0,
0,
0,
0,
0,
0,
0,
0,
0,
0,
0,
0,
0,
0,
0,
0,
0,
0,
0,
0,
0,
0,
0,
0,
0,
0,
0,
0,
0,
0,
0,
0,
0,
0,
0,
0,
0,
0,
0,
0,
0,
0,
0,
0,
0,
0,
0,
0,
0,
0,
0,
0,
0,
0,
0,
0,
0,
0,
0,
0,
0,
0,
0,
0,
0,
#ENDOFDATA   :

File: GMIIIA K1236[2][4].msa
#FORMAT      : EMSA/MAS Spectral Data File
#VERSION     : 1.0
#TITLE       : GMIIIA K1236[2][all]
#DATE        : 22-SEP-2025
#TIME        : 23:06
#OWNER       : Unknown
#NPOINTS     : 4096
#NCOLUMNS    : 1
#XUNITS      : eV
#YUNITS      : counts
#DATATYPE    : Y
#XPERCHAN    : 9.99778
#OFFSET      : 1.69135
#BEAMKV      : 15
#SIGNALTYPE  : EDS
#ELEVANGLE   : 35
#AZIMANGLE   : 0
#LIVETIME    : 239.913
#REALTIME    : 258.861
#PROBECUR    : 1.21388
#TAUWIND     : 0
#TDEADLYR    : 0
#TACTLYR     : 0.045
#TALWIND     : 0.025
#CHOFFSET    : 0.0
#XLABEL      : Energy (eV)
#YLABEL      : Counts
#XPOSITION   : 7.20591
#YPOSITION   : 18.91664
#ZPOSITION   : 37.36299
#EDSDET      : SD
##SPECIMEN   : GMIIIA K1236[2][all]
##D2STDCMP   : K1236,(O:21.27),(Sc:0.65),(Ge:40.95),(Pb:37.13)
##DET_HASH   : 12273538-fd48-a23f-0a19-f1e6fa85caef
##CALIB_HASH : 6abaa72c-aa41-8738-0be9-f592914732f3
##WORKING    : 15.0 mm
##DET_NAME   : EDAX All
##DET_MODE   : MediumLE
#SPECTRUM    :
32,
487,
11649,
8783,
36489,
7692,
8251,
11632,
35901,
53279,
6493,
6415,
7121,
10965,
6366,
6478,
10406,
63581,
12379,
8329,
4781,
4967,
5678,
4602,
4269,
4336,
4175,
4084,
3816,
5330,
3808,
3630,
3864,
3406,
3413,
3268,
3181,
3079,
3034,
2873,
2770,
2777,
2537,
2534,
2440,
2388,
2425,
2207,
2190,
2011,
2113,
1995,
1834,
1845,
1734,
1776,
1787,
1590,
1579,
1465,
1395,
1385,
1320,
1280,
1266,
1246,
1205,
1059,
1056,
1130,
5329,
5404,
1016,
880,
917,
1441,
1049,
787,
1431,
1182,
646,
530,
555,
528,
479,
452,
421,
397,
420,
412,
449,
323,
271,
238,
216,
209,
198,
186,
143,
145,
135,
94,
78,
82,
61,
30,
34,
14,
2,
5,
5,
5,
3,
1,
0,
5,
3,
1,
1,
1,
0,
0,
0,
2,
2,
1,
0,
1,
1,
1,
0,
0,
1,
1,
1,
0,
0,
2,
1,
1,
1,
1,
1,
0,
1,
0,
0,
1,
0,
0,
1,
0,
0,
1,
0,
0,
1,
0,
0,
1,
1,
0,
0,
0,
0,
0,
0,
0,
0,
0,
0,
1,
1,
0,
0,
0,
0,
0,
0,
0,
0,
0,
0,
0,
1,
0,
0,
0,
0,
0,
0,
0,
0,
0,
0,
0,
0,
0,
0,
0,
0,
0,
0,
0,
0,
0,
0,
0,
0,
0,
0,
0,
0,
0,
0,
0,
0,
0,
0,
0,
0,
0,
0,
0,
0,
0,
0,
0,
0,
0,
0,
0,
0,
0,
0,
0,
0,
0,
0,
0,
0,
0,
0,
0,
0,
0,
0,
0,
0,
0,
0,
0,
0,
0,
0,
0,
0,
0,
0,
0,
0,
0,
0,
0,
0,
0,
0,
0,
0,
0,
0,
0,
0,
0,
0,
0,
0,
0,
0,
0,
0,
0,
0,
0,
0,
0,
0,
0,
0,
0,
0,
0,
0,
0,
#ENDOFDATA   :

File: GMIIIA K1236[3][4].msa
#FORMAT      : EMSA/MAS Spectral Data File
#VERSION     : 1.0
#TITLE       : GMIIIA K1236[3][all]
#DATE        : 22-SEP-2025
#TIME        : 23:07
#OWNER       : Unknown
#NPOINTS     : 4096
#NCOLUMNS    : 1
#XUNITS      : eV
#YUNITS      : counts
#DATATYPE    : Y
#XPERCHAN    : 9.99778
#OFFSET      : 1.69135
#BEAMKV      : 15
#SIGNALTYPE  : EDS
#ELEVANGLE   : 35
#AZIMANGLE   : 0
#LIVETIME    : 239.912
#REALTIME    : 258.856
#PROBECUR    : 1.21388
#TAUWIND     : 0
#TDEADLYR    : 0
#TACTLYR     : 0.045
#TALWIND     : 0.025
#CHOFFSET    : 0.0
#XLABEL      : Energy (eV)
#YLABEL      : Counts
#XPOSITION   : 7.18739
#YPOSITION   : 19.00863
#ZPOSITION   : 37.36299
#EDSDET      : SD
##SPECIMEN   : GMIIIA K1236[3][all]
##D2STDCMP   : K1236,(O:21.27),(Sc:0.65),(Ge:40.95),(Pb:37.13)
##DET_HASH   : 12273538-fd48-a23f-0a19-f1e6fa85caef
##CALIB_HASH : 6abaa72c-aa41-8738-0be9-f592914732f3
##WORKING    : 15.0 mm
##DET_NAME   : EDAX All
##DET_MODE   : MediumLE
#SPECTRUM    :
23,
485,
11141,
8762,
36269,
7656,
8365,
11643,
35411,
53455,
6230,
6379,
7052,
10891,
6489,
6377,
10431,
63462,
12582,
8202,
4741,
4910,
5507,
4501,
4322,
4427,
4219,
4014,
3898,
5260,
3780,
3653,
3874,
3414,
3416,
3192,
3270,
3056,
2914,
2807,
2849,
2779,
2523,
2564,
2475,
2430,
2443,
2240,
2081,
2061,
2041,
1975,
1938,
1951,
1815,
1828,
1675,
1606,
1560,
1470,
1479,
1383,
1377,
1330,
1198,
1178,
1221,
1119,
1121,
1153,
5503,
5296,
1062,
922,
883,
1502,
1129,
763,
1435,
1166,
562,
565,
577,
481,
486,
486,
448,
405,
398,
404,
468,
324,
310,
302,
248,
217,
199,
197,
175,
134,
124,
107,
89,
74,
52,
34,
21,
4,
1,
3,
2,
3,
0,
0,
2,
1,
1,
2,
2,
3,
1,
1,
0,
0,
0,
0,
0,
2,
1,
0,
0,
0,
2,
0,
0,
1,
0,
1,
2,
2,
0,
1,
0,
0,
0,
0,
0,
0,
1,
0,
1,
0,
1,
0,
0,
0,
1,
0,
0,
0,
0,
0,
0,
1,
0,
0,
0,
0,
0,
0,
0,
0,
0,
0,
0,
0,
0,
0,
0,
0,
0,
0,
0,
0,
0,
0,
0,
0,
0,
0,
0,
0,
0,
0,
0,
0,
0,
0,
0,
0,
0,
0,
0,
0,
0,
0,
0,
0,
0,
0,
0,
0,
0,
0,
0,
0,
0,
0,
0,
0,
0,
0,
0,
0,
0,
0,
0,
0,
0,
0,
0,
0,
0,
0,
0,
0,
0,
0,
0,
0,
0,
0,
0,
0,
0,
0,
0,
0,
0,
0,
0,
0,
0,
0,
0,
0,
0,
0,
0,
0,
0,
0,
0,
0,
0,
0,
0,
0,
0,
0,
0,
0,
0,
0,
0,
0,
0,
0,
0,
0,
0,
0,
0,
0,
0,
0,
0,
0,
0,
0,
0,
0,
0,
0,
#ENDOFDATA   :