Folder: spex_quant/N132962/Quantification/15 keV/GMIIIA (part 8)

File: GMIIIA K1001[4][4].msa
#FORMAT      : EMSA/MAS Spectral Data File
#VERSION     : 1.0
#TITLE       : GMIIIA K1001[4][all]
#DATE        : 22-SEP-2025
#TIME        : 21:56
#OWNER       : Unknown
#NPOINTS     : 4096
#NCOLUMNS    : 1
#XUNITS      : eV
#YUNITS      : counts
#DATATYPE    : Y
#XPERCHAN    : 9.99778
#OFFSET      : 1.69135
#BEAMKV      : 15
#SIGNALTYPE  : EDS
#ELEVANGLE   : 35
#AZIMANGLE   : 0
#LIVETIME    : 239.994
#REALTIME    : 256.289
#PROBECUR    : 1.21615
#TAUWIND     : 0
#TDEADLYR    : 0
#TACTLYR     : 0.045
#TALWIND     : 0.025
#CHOFFSET    : 0.0
#XLABEL      : Energy (eV)
#YLABEL      : Counts
#XPOSITION   : 13.47066
#YPOSITION   : 15.05539
#ZPOSITION   : 37.36299
#EDSDET      : SD
##SPECIMEN   : GMIIIA K1001[4][all]
##D2STDCMP   : K1001,(O:39.47),(Na:1.67),(Mg:1.36),(Al:8.92),(Si:21.02),(K:1.87),(Ca:6.75),(Rb:2.06),(Sr:10.05),(Pr:1.92),(Nd:1.93),(Er:1.97),(Pb:1.04)
##DET_HASH   : 12273538-fd48-a23f-0a19-f1e6fa85caef
##CALIB_HASH : 6abaa72c-aa41-8738-0be9-f592914732f3
##WORKING    : 15.0 mm
##DET_NAME   : EDAX All
##DET_MODE   : MediumLE
#SPECTRUM    :
25,
275,
9030,
7678,
56335,
4703,
4684,
9390,
6606,
16666,
14508,
30622,
57601,
58255,
5506,
3045,
3701,
4246,
2985,
2970,
2777,
2807,
2640,
3328,
6596,
2847,
14425,
5875,
2447,
3678,
1918,
1803,
1819,
1807,
1672,
1622,
2875,
2132,
1606,
1899,
1483,
1650,
1388,
1253,
1225,
1167,
1005,
1079,
1001,
1194,
1273,
847,
812,
771,
760,
762,
850,
724,
696,
673,
537,
519,
555,
499,
490,
485,
473,
414,
402,
385,
392,
362,
352,
365,
334,
288,
289,
270,
262,
221,
215,
206,
172,
194,
159,
146,
172,
142,
139,
130,
108,
111,
92,
88,
84,
66,
57,
59,
58,
51,
36,
38,
29,
22,
20,
9,
5,
4,
0,
0,
1,
0,
0,
0,
0,
0,
1,
1,
1,
1,
0,
0,
0,
0,
1,
0,
1,
0,
0,
1,
0,
0,
1,
0,
0,
0,
0,
0,
0,
0,
0,
0,
0,
0,
0,
0,
0,
0,
0,
0,
0,
0,
0,
0,
0,
0,
0,
0,
0,
1,
0,
0,
0,
0,
0,
0,
0,
0,
0,
0,
0,
0,
0,
0,
0,
0,
0,
0,
0,
0,
0,
0,
0,
0,
0,
0,
0,
0,
0,
0,
0,
0,
0,
0,
0,
0,
0,
0,
0,
0,
0,
0,
0,
0,
0,
0,
0,
0,
0,
0,
0,
0,
0,
0,
0,
0,
0,
0,
0,
0,
0,
0,
0,
0,
0,
0,
0,
0,
0,
0,
0,
0,
0,
0,
0,
0,
0,
0,
0,
0,
0,
0,
0,
0,
0,
0,
0,
0,
0,
0,
0,
0,
0,
0,
0,
0,
0,
0,
0,
0,
0,
0,
0,
0,
0,
0,
0,
0,
0,
0,
0,
0,
0,
0,
0,
0,
0,
0,
0,
0,
0,
0,
0,
0,
0,
0,
0,
0,
0,
0,
0,
0,
0,
0,
#ENDOFDATA   :

File: GMIIIA K1001[5][4].msa
#FORMAT      : EMSA/MAS Spectral Data File
#VERSION     : 1.0
#TITLE       : GMIIIA K1001[5][all]
#DATE        : 22-SEP-2025
#TIME        : 21:57
#OWNER       : Unknown
#NPOINTS     : 4096
#NCOLUMNS    : 1
#XUNITS      : eV
#YUNITS      : counts
#DATATYPE    : Y
#XPERCHAN    : 9.99778
#OFFSET      : 1.69135
#BEAMKV      : 15
#SIGNALTYPE  : EDS
#ELEVANGLE   : 35
#AZIMANGLE   : 0
#LIVETIME    : 239.943
#REALTIME    : 256.231
#PROBECUR    : 1.21615
#TAUWIND     : 0
#TDEADLYR    : 0
#TACTLYR     : 0.045
#TALWIND     : 0.025
#CHOFFSET    : 0.0
#XLABEL      : Energy (eV)
#YLABEL      : Counts
#XPOSITION   : 13.48517
#YPOSITION   : 15.0143
#ZPOSITION   : 37.36299
#EDSDET      : SD
##SPECIMEN   : GMIIIA K1001[5][all]
##D2STDCMP   : K1001,(O:39.47),(Na:1.67),(Mg:1.36),(Al:8.92),(Si:21.02),(K:1.87),(Ca:6.75),(Rb:2.06),(Sr:10.05),(Pr:1.92),(Nd:1.93),(Er:1.97),(Pb:1.04)
##DET_HASH   : 12273538-fd48-a23f-0a19-f1e6fa85caef
##CALIB_HASH : 6abaa72c-aa41-8738-0be9-f592914732f3
##WORKING    : 15.0 mm
##DET_NAME   : EDAX All
##DET_MODE   : MediumLE
#SPECTRUM    :
29,
276,
9246,
7677,
55882,
4514,
4695,
9318,
6653,
16611,
14334,
30832,
57775,
58553,
5379,
3160,
3572,
4178,
3108,
2959,
2770,
2777,
2629,
3384,
6470,
2827,
14162,
5884,
2514,
3611,
1851,
1765,
1757,
1774,
1612,
1632,
2844,
2137,
1575,
1892,
1496,
1668,
1474,
1251,
1236,
1151,
1072,
1102,
948,
1119,
1191,
850,
833,
801,
762,
746,
856,
679,
663,
633,
594,
535,
540,
570,
462,
569,
445,
456,
393,
381,
386,
386,
340,
328,
297,
331,
293,
271,
285,
249,
228,
202,
223,
165,
161,
156,
151,
155,
137,
110,
133,
102,
96,
83,
73,
69,
61,
67,
49,
36,
41,
30,
21,
19,
17,
7,
3,
0,
0,
0,
0,
0,
0,
1,
1,
0,
1,
0,
0,
0,
0,
0,
0,
1,
0,
0,
0,
0,
0,
1,
0,
1,
1,
1,
0,
0,
1,
0,
0,
0,
0,
0,
0,
0,
0,
0,
0,
1,
0,
0,
0,
0,
0,
0,
0,
0,
0,
0,
0,
0,
0,
0,
0,
0,
0,
0,
0,
0,
0,
0,
0,
0,
0,
0,
0,
0,
0,
0,
0,
0,
0,
0,
0,
0,
0,
0,
0,
0,
0,
0,
0,
0,
0,
0,
0,
0,
0,
0,
0,
0,
0,
0,
0,
0,
0,
0,
0,
0,
0,
0,
0,
0,
0,
0,
0,
0,
0,
0,
0,
0,
0,
0,
0,
0,
0,
0,
0,
0,
0,
0,
0,
0,
0,
0,
0,
0,
0,
0,
0,
0,
0,
0,
0,
0,
0,
0,
0,
0,
0,
0,
0,
0,
0,
0,
0,
0,
0,
0,
0,
0,
0,
0,
0,
0,
0,
0,
0,
0,
0,
0,
0,
0,
0,
0,
0,
0,
0,
0,
0,
0,
0,
0,
0,
0,
0,
0,
0,
0,
0,
0,
0,
0,
0,
0,
#ENDOFDATA   :

File: GMIIIA K1001[6][4].msa
#FORMAT      : EMSA/MAS Spectral Data File
#VERSION     : 1.0
#TITLE       : GMIIIA K1001[6][all]
#DATE        : 22-SEP-2025
#TIME        : 21:58
#OWNER       : Unknown
#NPOINTS     : 4096
#NCOLUMNS    : 1
#XUNITS      : eV
#YUNITS      : counts
#DATATYPE    : Y
#XPERCHAN    : 9.99778
#OFFSET      : 1.69135
#BEAMKV      : 15
#SIGNALTYPE  : EDS
#ELEVANGLE   : 35
#AZIMANGLE   : 0
#LIVETIME    : 240
#REALTIME    : 256.29
#PROBECUR    : 1.21615
#TAUWIND     : 0
#TDEADLYR    : 0
#TACTLYR     : 0.045
#TALWIND     : 0.025
#CHOFFSET    : 0.0
#XLABEL      : Energy (eV)
#YLABEL      : Counts
#XPOSITION   : 13.50274
#YPOSITION   : 15.17561
#ZPOSITION   : 37.36299
#EDSDET      : SD
##SPECIMEN   : GMIIIA K1001[6][all]
##D2STDCMP   : K1001,(O:39.47),(Na:1.67),(Mg:1.36),(Al:8.92),(Si:21.02),(K:1.87),(Ca:6.75),(Rb:2.06),(Sr:10.05),(Pr:1.92),(Nd:1.93),(Er:1.97),(Pb:1.04)
##DET_HASH   : 12273538-fd48-a23f-0a19-f1e6fa85caef
##CALIB_HASH : 6abaa72c-aa41-8738-0be9-f592914732f3
##WORKING    : 15.0 mm
##DET_NAME   : EDAX All
##DET_MODE   : MediumLE
#SPECTRUM    :
18,
310,
9222,
7798,
56077,
4717,
4816,
9367,
6506,
16624,
14318,
31008,
57315,
59011,
5395,
3175,
3557,
4267,
3071,
2999,
2897,
2820,
2633,
3375,
6336,
2787,
14297,
5723,
2500,
3568,
1942,
1792,
1863,
1709,
1541,
1621,
2847,
2090,
1648,
1893,
1497,
1712,
1406,
1270,
1272,
1133,
1052,
1059,
960,
1147,
1270,
773,
780,
820,
755,
768,
932,
713,
688,
650,
635,
575,
553,
553,
471,
502,
433,
451,
397,
396,
355,
384,
363,
323,
300,
295,
305,
277,
233,
244,
234,
208,
215,
207,
206,
165,
159,
139,
126,
130,
100,
112,
102,
109,
77,
70,
53,
53,
48,
44,
41,
24,
29,
25,
10,
10,
6,
1,
0,
0,
1,
0,
0,
0,
0,
0,
0,
0,
0,
0,
0,
1,
0,
1,
0,
0,
0,
0,
0,
0,
0,
2,
0,
0,
0,
0,
0,
0,
0,
0,
0,
0,
0,
0,
0,
0,
0,
0,
0,
0,
0,
0,
0,
0,
0,
0,
0,
0,
0,
0,
0,
0,
0,
0,
0,
0,
0,
0,
0,
0,
0,
0,
0,
0,
0,
0,
0,
0,
0,
0,
0,
0,
0,
0,
0,
0,
0,
0,
0,
0,
0,
0,
0,
0,
0,
0,
0,
0,
0,
0,
0,
0,
0,
0,
0,
0,
0,
0,
0,
0,
0,
0,
0,
0,
0,
0,
0,
0,
0,
0,
0,
0,
0,
0,
0,
0,
0,
0,
0,
0,
0,
0,
0,
0,
0,
0,
0,
0,
0,
0,
0,
0,
0,
0,
0,
0,
0,
0,
0,
0,
0,
0,
0,
0,
0,
0,
0,
0,
0,
0,
0,
0,
0,
0,
0,
0,
0,
0,
0,
0,
0,
0,
0,
0,
0,
0,
0,
0,
0,
0,
0,
0,
0,
0,
0,
0,
0,
0,
0,
0,
0,
0,
0,
0,
#ENDOFDATA   :

File: GMIIIA K1001[7][4].msa
#FORMAT      : EMSA/MAS Spectral Data File
#VERSION     : 1.0
#TITLE       : GMIIIA K1001[7][all]
#DATE        : 22-SEP-2025
#TIME        : 22:00
#OWNER       : Unknown
#NPOINTS     : 4096
#NCOLUMNS    : 1
#XUNITS      : eV
#YUNITS      : counts
#DATATYPE    : Y
#XPERCHAN    : 9.99778
#OFFSET      : 1.69135
#BEAMKV      : 15
#SIGNALTYPE  : EDS
#ELEVANGLE   : 35
#AZIMANGLE   : 0
#LIVETIME    : 240.015
#REALTIME    : 256.2894
#PROBECUR    : 1.21615
#TAUWIND     : 0
#TDEADLYR    : 0
#TACTLYR     : 0.045
#TALWIND     : 0.025
#CHOFFSET    : 0.0
#XLABEL      : Energy (eV)
#YLABEL      : Counts
#XPOSITION   : 13.4723
#YPOSITION   : 15.14084
#ZPOSITION   : 37.36299
#EDSDET      : SD
##SPECIMEN   : GMIIIA K1001[7][all]
##D2STDCMP   : K1001,(O:39.47),(Na:1.67),(Mg:1.36),(Al:8.92),(Si:21.02),(K:1.87),(Ca:6.75),(Rb:2.06),(Sr:10.05),(Pr:1.92),(Nd:1.93),(Er:1.97),(Pb:1.04)
##DET_HASH   : 12273538-fd48-a23f-0a19-f1e6fa85caef
##CALIB_HASH : 6abaa72c-aa41-8738-0be9-f592914732f3
##WORKING    : 15.0 mm
##DET_NAME   : EDAX All
##DET_MODE   : MediumLE
#SPECTRUM    :
25,
282,
9085,
7489,
55968,
4685,
4731,
9540,
6593,
16713,
14449,
30760,
57146,
58831,
5472,
3156,
3742,
4276,
3077,
2858,
2668,
2821,
2674,
3439,
6505,
2749,
14175,
5900,
2496,
3672,
1899,
1786,
1813,
1742,
1561,
1627,
2889,
2104,
1591,
1897,
1509,
1743,
1467,
1184,
1152,
1151,
1030,
1067,
964,
1154,
1279,
844,
781,
827,
737,
747,
824,
730,
675,
666,
557,
608,
504,
479,
497,
523,
441,
441,
409,
383,
370,
378,
315,
326,
329,
309,
289,
289,
232,
249,
217,
204,
210,
186,
178,
168,
153,
139,
127,
133,
102,
105,
107,
84,
74,
85,
72,
46,
61,
38,
33,
33,
31,
24,
16,
8,
7,
1,
3,
1,
0,
0,
1,
1,
0,
1,
0,
0,
0,
0,
0,
0,
0,
0,
0,
0,
0,
1,
0,
0,
0,
0,
1,
1,
0,
0,
0,
0,
0,
0,
0,
0,
0,
0,
0,
0,
0,
0,
1,
0,
0,
0,
0,
0,
0,
0,
0,
0,
0,
0,
0,
0,
0,
0,
0,
0,
0,
0,
0,
0,
0,
0,
0,
0,
0,
0,
0,
0,
0,
0,
0,
0,
0,
0,
0,
0,
0,
0,
0,
0,
0,
0,
0,
0,
0,
0,
0,
0,
0,
0,
0,
0,
0,
0,
0,
0,
0,
0,
0,
0,
0,
0,
0,
0,
0,
0,
0,
0,
0,
0,
0,
0,
0,
0,
0,
0,
0,
0,
0,
0,
0,
0,
0,
0,
0,
0,
0,
0,
0,
0,
0,
0,
0,
0,
0,
0,
0,
0,
0,
0,
0,
0,
0,
0,
0,
0,
0,
0,
0,
0,
0,
0,
0,
0,
0,
0,
0,
0,
0,
0,
0,
0,
0,
0,
0,
0,
0,
0,
0,
0,
0,
0,
0,
0,
0,
0,
0,
0,
0,
0,
0,
0,
0,
0,
#ENDOFDATA   :

File: GMIIIA K1001[8][4].msa
#FORMAT      : EMSA/MAS Spectral Data File
#VERSION     : 1.0
#TITLE       : GMIIIA K1001[8][all]
#DATE        : 22-SEP-2025
#TIME        : 22:01
#OWNER       : Unknown
#NPOINTS     : 4096
#NCOLUMNS    : 1
#XUNITS      : eV
#YUNITS      : counts
#DATATYPE    : Y
#XPERCHAN    : 9.99778
#OFFSET      : 1.69135
#BEAMKV      : 15
#SIGNALTYPE  : EDS
#ELEVANGLE   : 35
#AZIMANGLE   : 0
#LIVETIME    : 239.947
#REALTIME    : 256.238
#PROBECUR    : 1.21595
#TAUWIND     : 0
#TDEADLYR    : 0
#TACTLYR     : 0.045
#TALWIND     : 0.025
#CHOFFSET    : 0.0
#XLABEL      : Energy (eV)
#YLABEL      : Counts
#XPOSITION   : 13.53344
#YPOSITION   : 15.08412
#ZPOSITION   : 37.36299
#EDSDET      : SD
##SPECIMEN   : GMIIIA K1001[8][all]
##D2STDCMP   : K1001,(O:39.47),(Na:1.67),(Mg:1.36),(Al:8.92),(Si:21.02),(K:1.87),(Ca:6.75),(Rb:2.06),(Sr:10.05),(Pr:1.92),(Nd:1.93),(Er:1.97),(Pb:1.04)
##DET_HASH   : 12273538-fd48-a23f-0a19-f1e6fa85caef
##CALIB_HASH : 6abaa72c-aa41-8738-0be9-f592914732f3
##WORKING    : 15.0 mm
##DET_NAME   : EDAX All
##DET_MODE   : MediumLE
#SPECTRUM    :
26,
302,
9259,
7613,
56649,
4481,
4810,
9408,
6625,
16496,
14333,
30709,
56769,
58839,
5417,
3094,
3653,
4216,
3033,
2963,
2747,
2840,
2633,
3450,
6355,
2785,
14388,
5836,
2463,
3608,
1978,
1765,
1835,
1683,
1593,
1587,
2925,
2065,
1672,
1906,
1471,
1634,
1400,
1229,
1206,
1184,
1129,
1019,
958,
1126,
1204,
844,
770,
797,
774,
750,
876,
719,
692,
665,
558,
546,
544,
473,
478,
502,
457,
437,
431,
418,
364,
336,
323,
356,
281,
332,
288,
282,
250,
207,
240,
246,
191,
193,
172,
164,
152,
147,
135,
138,
111,
112,
99,
93,
88,
67,
54,
56,
57,
41,
36,
36,
31,
18,
10,
9,
8,
3,
2,
0,
1,
0,
0,
0,
0,
0,
0,
0,
0,
0,
0,
0,
0,
0,
1,
1,
0,
0,
0,
0,
0,
0,
1,
0,
0,
0,
0,
0,
0,
0,
0,
0,
0,
0,
0,
0,
0,
0,
0,
0,
0,
0,
0,
0,
0,
0,
0,
0,
0,
0,
0,
0,
0,
0,
0,
0,
0,
0,
0,
0,
0,
0,
0,
0,
0,
0,
0,
0,
0,
0,
0,
0,
0,
0,
0,
0,
0,
0,
0,
0,
0,
0,
0,
0,
0,
0,
0,
0,
0,
0,
0,
0,
0,
0,
0,
0,
0,
0,
0,
0,
0,
0,
0,
0,
0,
0,
0,
0,
0,
0,
0,
0,
0,
0,
0,
0,
0,
0,
0,
0,
0,
0,
0,
0,
0,
0,
0,
0,
0,
0,
0,
0,
0,
0,
0,
0,
0,
0,
0,
0,
0,
0,
0,
0,
0,
0,
0,
0,
0,
0,
0,
0,
0,
0,
0,
0,
0,
0,
0,
0,
0,
0,
0,
0,
0,
0,
0,
0,
0,
0,
0,
0,
0,
0,
0,
0,
0,
0,
0,
0,
0,
0,
0,
0,
#ENDOFDATA   :

File: GMIIIA K1008[0][4].msa
#FORMAT      : EMSA/MAS Spectral Data File
#VERSION     : 1.0
#TITLE       : GMIIIA K1008[0][all]
#DATE        : 22-SEP-2025
#TIME        : 21:41
#OWNER       : Unknown
#NPOINTS     : 4096
#NCOLUMNS    : 1
#XUNITS      : eV
#YUNITS      : counts
#DATATYPE    : Y
#XPERCHAN    : 9.99778
#OFFSET      : 1.69135
#BEAMKV      : 15
#SIGNALTYPE  : EDS
#ELEVANGLE   : 35
#AZIMANGLE   : 0
#LIVETIME    : 240.004
#REALTIME    : 256.524
#PROBECUR    : 1.21615
#TAUWIND     : 0
#TDEADLYR    : 0
#TACTLYR     : 0.045
#TALWIND     : 0.025
#CHOFFSET    : 0.0
#XLABEL      : Energy (eV)
#YLABEL      : Counts
#XPOSITION   : 11.40953
#YPOSITION   : 15.15429
#ZPOSITION   : 37.36299
#EDSDET      : SD
##SPECIMEN   : GMIIIA K1008[0][all]
##D2STDCMP   : K1008,(O:38.68),(Na:1.67),(Al:8.92),(Si:21.02),(Ca:6.75),(Rb:2.06),(Sr:10.05),(Zr:0.83),(Cs:2.12),(Ba:2.02),(Ho:1.96),(Tm:1.97),(Yb:1.98)
##DET_HASH   : 12273538-fd48-a23f-0a19-f1e6fa85caef
##CALIB_HASH : 6abaa72c-aa41-8738-0be9-f592914732f3
##WORKING    : 15.0 mm
##DET_NAME   : EDAX All
##DET_MODE   : MediumLE
#SPECTRUM    :
25,
262,
7986,
7952,
58314,
4347,
4809,
8051,
6757,
6310,
14174,
38706,
56993,
58031,
5880,
4361,
3729,
3094,
3069,
3061,
2928,
2897,
2766,
2804,
2631,
2784,
13975,
6141,
2616,
3861,
2548,
3033,
3598,
2734,
2176,
2362,
1669,
1903,
1602,
1539,
1487,
1321,
1300,
1238,
1182,
1207,
1161,
1141,
1659,
1023,
977,
1361,
1064,
1366,
1074,
817,
834,
794,
814,
687,
869,
701,
696,
614,
536,
521,
469,
529,
436,
432,
430,
363,
376,
366,
354,
316,
304,
297,
280,
249,
252,
222,
201,
211,
208,
154,
184,
173,
138,
148,
124,
106,
105,
95,
76,
89,
76,
71,
56,
44,
47,
39,
26,
16,
18,
8,
8,
4,
1,
1,
1,
0,
0,
0,
0,
0,
0,
0,
1,
0,
0,
0,
0,
0,
0,
0,
1,
0,
0,
0,
0,
0,
0,
0,
0,
0,
0,
0,
0,
0,
0,
0,
0,
0,
0,
0,
0,
0,
0,
0,
0,
0,
0,
0,
0,
0,
0,
0,
0,
0,
0,
0,
0,
0,
0,
0,
0,
0,
0,
0,
0,
0,
0,
0,
0,
0,
0,
0,
0,
0,
0,
0,
0,
0,
0,
0,
0,
0,
0,
0,
0,
0,
0,
0,
0,
0,
0,
0,
0,
0,
0,
0,
0,
0,
0,
0,
0,
0,
0,
0,
0,
0,
0,
0,
0,
0,
0,
0,
0,
0,
0,
0,
0,
0,
0,
0,
0,
0,
0,
0,
0,
0,
0,
0,
0,
0,
0,
0,
0,
0,
0,
0,
0,
0,
0,
0,
0,
0,
0,
0,
0,
0,
0,
0,
0,
0,
0,
0,
0,
0,
0,
0,
0,
0,
0,
0,
0,
0,
0,
0,
0,
0,
0,
0,
0,
0,
0,
0,
0,
0,
0,
0,
0,
0,
0,
0,
0,
0,
0,
0,
0,
0,
0,
0,
#ENDOFDATA   :

File: GMIIIA K1008[1][4].msa
#FORMAT      : EMSA/MAS Spectral Data File
#VERSION     : 1.0
#TITLE       : GMIIIA K1008[1][all]
#DATE        : 22-SEP-2025
#TIME        : 21:42
#OWNER       : Unknown
#NPOINTS     : 4096
#NCOLUMNS    : 1
#XUNITS      : eV
#YUNITS      : counts
#DATATYPE    : Y
#XPERCHAN    : 9.99778
#OFFSET      : 1.69135
#BEAMKV      : 15
#SIGNALTYPE  : EDS
#ELEVANGLE   : 35
#AZIMANGLE   : 0
#LIVETIME    : 239.962
#REALTIME    : 256.486
#PROBECUR    : 1.21615
#TAUWIND     : 0
#TDEADLYR    : 0
#TACTLYR     : 0.045
#TALWIND     : 0.025
#CHOFFSET    : 0.0
#XLABEL      : Energy (eV)
#YLABEL      : Counts
#XPOSITION   : 11.40584
#YPOSITION   : 15.06884
#ZPOSITION   : 37.36299
#EDSDET      : SD
##SPECIMEN   : GMIIIA K1008[1][all]
##D2STDCMP   : K1008,(O:38.68),(Na:1.67),(Al:8.92),(Si:21.02),(Ca:6.75),(Rb:2.06),(Sr:10.05),(Zr:0.83),(Cs:2.12),(Ba:2.02),(Ho:1.96),(Tm:1.97),(Yb:1.98)
##DET_HASH   : 12273538-fd48-a23f-0a19-f1e6fa85caef
##CALIB_HASH : 6abaa72c-aa41-8738-0be9-f592914732f3
##WORKING    : 15.0 mm
##DET_NAME   : EDAX All
##DET_MODE   : MediumLE
#SPECTRUM    :
35,
279,
8335,
8107,
58021,
4474,
4813,
8309,
7015,
6302,
14319,
39019,
57289,
58401,
5800,
4152,
3751,
3192,
3022,
2959,
2857,
2865,
2719,
2835,
2544,
2819,
14210,
6135,
2838,
3828,
2547,
3133,
3477,
2662,
2175,
2242,
1658,
1833,
1592,
1503,
1443,
1365,
1360,
1255,
1205,
1148,
1135,
1144,
1644,
1005,
899,
1358,
1038,
1414,
1086,
766,
833,
798,
906,
688,
806,
718,
638,
643,
586,
532,
525,
478,
468,
438,
454,
370,
408,
356,
314,
320,
326,
301,
247,
233,
266,
251,
238,
214,
219,
169,
196,
139,
147,
148,
103,
130,
102,
90,
79,
88,
72,
69,
45,
42,
37,
49,
25,
23,
17,
22,
10,
0,
1,
3,
0,
1,
1,
0,
0,
0,
0,
0,
0,
0,
2,
0,
0,
0,
0,
1,
0,
1,
0,
0,
0,
0,
0,
0,
0,
0,
0,
0,
0,
0,
0,
1,
1,
0,
0,
0,
0,
0,
0,
0,
0,
0,
0,
0,
0,
0,
0,
0,
0,
0,
0,
0,
0,
0,
0,
0,
0,
0,
0,
0,
0,
0,
0,
0,
0,
0,
0,
0,
0,
0,
0,
0,
0,
0,
0,
0,
0,
0,
0,
0,
0,
0,
0,
0,
0,
0,
0,
0,
0,
0,
0,
0,
0,
0,
0,
0,
0,
0,
0,
0,
0,
0,
0,
0,
0,
0,
0,
0,
0,
0,
0,
0,
0,
0,
0,
0,
0,
0,
0,
0,
0,
0,
0,
0,
0,
0,
0,
0,
0,
0,
0,
0,
0,
0,
0,
0,
0,
0,
0,
0,
0,
0,
0,
0,
0,
0,
0,
0,
0,
0,
0,
0,
0,
0,
0,
0,
0,
0,
0,
0,
0,
0,
0,
0,
0,
0,
0,
0,
0,
0,
0,
0,
0,
0,
0,
0,
0,
0,
0,
0,
0,
0,
0,
0,
#ENDOFDATA   :

File: GMIIIA K1008[2][4].msa
#FORMAT      : EMSA/MAS Spectral Data File
#VERSION     : 1.0
#TITLE       : GMIIIA K1008[2][all]
#DATE        : 22-SEP-2025
#TIME        : 21:44
#OWNER       : Unknown
#NPOINTS     : 4096
#NCOLUMNS    : 1
#XUNITS      : eV
#YUNITS      : counts
#DATATYPE    : Y
#XPERCHAN    : 9.99778
#OFFSET      : 1.69135
#BEAMKV      : 15
#SIGNALTYPE  : EDS
#ELEVANGLE   : 35
#AZIMANGLE   : 0
#LIVETIME    : 239.984
#REALTIME    : 256.496
#PROBECUR    : 1.21615
#TAUWIND     : 0
#TDEADLYR    : 0
#TACTLYR     : 0.045
#TALWIND     : 0.025
#CHOFFSET    : 0.0
#XLABEL      : Energy (eV)
#YLABEL      : Counts
#XPOSITION   : 11.40819
#YPOSITION   : 15.2091
#ZPOSITION   : 37.36299
#EDSDET      : SD
##SPECIMEN   : GMIIIA K1008[2][all]
##D2STDCMP   : K1008,(O:38.68),(Na:1.67),(Al:8.92),(Si:21.02),(Ca:6.75),(Rb:2.06),(Sr:10.05),(Zr:0.83),(Cs:2.12),(Ba:2.02),(Ho:1.96),(Tm:1.97),(Yb:1.98)
##DET_HASH   : 12273538-fd48-a23f-0a19-f1e6fa85caef
##CALIB_HASH : 6abaa72c-aa41-8738-0be9-f592914732f3
##WORKING    : 15.0 mm
##DET_NAME   : EDAX All
##DET_MODE   : MediumLE
#SPECTRUM    :
21,
302,
8166,
8046,
57920,
4216,
4891,
8121,
6848,
6404,
14023,
38768,
57027,
58270,
5869,
4264,
3847,
3256,
3126,
2969,
2887,
2936,
2695,
2832,
2601,
2809,
14120,
6040,
2684,
3909,
2455,
3032,
3500,
2722,
2205,
2256,
1682,
1832,
1545,
1492,
1446,
1335,
1287,
1258,
1176,
1155,
1074,
1119,
1692,
1025,
990,
1367,
1030,
1335,
1006,
754,
807,
794,
871,
699,
857,
703,
661,
664,
531,
554,
504,
490,
445,
447,
409,
405,
377,
378,
368,
313,
292,
287,
274,
252,
241,
249,
214,
216,
206,
166,
155,
136,
146,
137,
140,
129,
100,
86,
88,
64,
70,
43,
53,
34,
49,
41,
36,
23,
18,
10,
3,
2,
1,
0,
1,
1,
2,
1,
0,
2,
1,
0,
0,
0,
0,
1,
0,
0,
0,
0,
0,
0,
0,
0,
1,
0,
0,
0,
0,
0,
0,
0,
0,
0,
0,
0,
0,
0,
0,
0,
0,
0,
0,
0,
0,
0,
0,
0,
0,
0,
0,
0,
0,
0,
0,
0,
0,
0,
0,
0,
0,
0,
0,
0,
0,
0,
0,
0,
0,
0,
0,
0,
0,
0,
0,
0,
0,
0,
0,
0,
0,
0,
0,
0,
0,
0,
0,
0,
0,
0,
0,
0,
0,
0,
0,
0,
0,
0,
0,
0,
0,
0,
0,
0,
0,
0,
0,
0,
0,
0,
0,
0,
0,
0,
0,
0,
0,
0,
0,
0,
0,
0,
0,
0,
0,
0,
0,
0,
0,
0,
0,
0,
0,
0,
0,
0,
0,
0,
0,
0,
0,
0,
0,
0,
0,
0,
0,
0,
0,
0,
0,
0,
0,
0,
0,
0,
0,
0,
0,
0,
0,
0,
0,
0,
0,
0,
0,
0,
0,
0,
0,
0,
0,
0,
0,
0,
0,
0,
0,
0,
0,
0,
0,
0,
0,
0,
0,
0,
#ENDOFDATA   :

File: GMIIIA K1008[3][4].msa
#FORMAT      : EMSA/MAS Spectral Data File
#VERSION     : 1.0
#TITLE       : GMIIIA K1008[3][all]
#DATE        : 22-SEP-2025
#TIME        : 21:45
#OWNER       : Unknown
#NPOINTS     : 4096
#NCOLUMNS    : 1
#XUNITS      : eV
#YUNITS      : counts
#DATATYPE    : Y
#XPERCHAN    : 9.99778
#OFFSET      : 1.69135
#BEAMKV      : 15
#SIGNALTYPE  : EDS
#ELEVANGLE   : 35
#AZIMANGLE   : 0
#LIVETIME    : 240.029
#REALTIME    : 256.545
#PROBECUR    : 1.21615
#TAUWIND     : 0
#TDEADLYR    : 0
#TACTLYR     : 0.045
#TALWIND     : 0.025
#CHOFFSET    : 0.0
#XLABEL      : Energy (eV)
#YLABEL      : Counts
#XPOSITION   : 11.44941
#YPOSITION   : 15.20366
#ZPOSITION   : 37.36299
#EDSDET      : SD
##SPECIMEN   : GMIIIA K1008[3][all]
##D2STDCMP   : K1008,(O:38.68),(Na:1.67),(Al:8.92),(Si:21.02),(Ca:6.75),(Rb:2.06),(Sr:10.05),(Zr:0.83),(Cs:2.12),(Ba:2.02),(Ho:1.96),(Tm:1.97),(Yb:1.98)
##DET_HASH   : 12273538-fd48-a23f-0a19-f1e6fa85caef
##CALIB_HASH : 6abaa72c-aa41-8738-0be9-f592914732f3
##WORKING    : 15.0 mm
##DET_NAME   : EDAX All
##DET_MODE   : MediumLE
#SPECTRUM    :
27,
315,
8119,
7967,
57863,
4353,
4916,
8197,
6936,
6437,
14414,
38715,
57130,
58035,
5969,
4185,
3714,
3219,
3107,
2899,
2958,
2875,
2730,
2849,
2618,
2751,
14172,
6058,
2803,
3737,
2436,
3077,
3540,
2690,
2206,
2397,
1732,
1797,
1593,
1537,
1386,
1368,
1335,
1204,
1137,
1132,
1129,
1166,
1636,
993,
956,
1297,
1088,
1378,
1032,
826,
865,
847,
868,
716,
826,
703,
636,
599,
537,
545,
487,
509,
460,
427,
442,
399,
410,
354,
303,
330,
327,
308,
294,
259,
272,
233,
220,
210,
179,
179,
163,
163,
149,
135,
128,
98,
100,
93,
85,
78,
82,
58,
56,
57,
32,
29,
35,
27,
20,
11,
5,
2,
3,
0,
1,
0,
1,
0,
0,
1,
0,
0,
1,
0,
0,
1,
0,
0,
0,
1,
0,
0,
0,
0,
0,
0,
0,
0,
0,
0,
0,
0,
0,
0,
0,
0,
0,
0,
0,
0,
0,
0,
0,
0,
0,
0,
0,
0,
0,
0,
0,
0,
0,
0,
0,
0,
0,
0,
0,
0,
0,
0,
0,
0,
0,
0,
0,
0,
0,
0,
0,
0,
0,
0,
0,
0,
0,
0,
0,
0,
0,
0,
0,
0,
0,
0,
0,
0,
0,
0,
0,
0,
0,
0,
0,
0,
0,
0,
0,
0,
0,
0,
0,
0,
0,
0,
0,
0,
0,
0,
0,
0,
0,
0,
0,
0,
0,
0,
0,
0,
0,
0,
0,
0,
0,
0,
0,
0,
0,
0,
0,
0,
0,
0,
0,
0,
0,
0,
0,
0,
0,
0,
0,
0,
0,
0,
0,
0,
0,
0,
0,
0,
0,
0,
0,
0,
0,
0,
0,
0,
0,
0,
0,
0,
0,
0,
0,
0,
0,
0,
0,
0,
0,
0,
0,
0,
0,
0,
0,
0,
0,
0,
0,
0,
0,
0,
0,
0,
#ENDOFDATA   :

File: GMIIIA K1008[4][4].msa
#FORMAT      : EMSA/MAS Spectral Data File
#VERSION     : 1.0
#TITLE       : GMIIIA K1008[4][all]
#DATE        : 22-SEP-2025
#TIME        : 21:46
#OWNER       : Unknown
#NPOINTS     : 4096
#NCOLUMNS    : 1
#XUNITS      : eV
#YUNITS      : counts
#DATATYPE    : Y
#XPERCHAN    : 9.99778
#OFFSET      : 1.69135
#BEAMKV      : 15
#SIGNALTYPE  : EDS
#ELEVANGLE   : 35
#AZIMANGLE   : 0
#LIVETIME    : 240.025
#REALTIME    : 256.549
#PROBECUR    : 1.21615
#TAUWIND     : 0
#TDEADLYR    : 0
#TACTLYR     : 0.045
#TALWIND     : 0.025
#CHOFFSET    : 0.0
#XLABEL      : Energy (eV)
#YLABEL      : Counts
#XPOSITION   : 11.41914
#YPOSITION   : 15.20386
#ZPOSITION   : 37.36299
#EDSDET      : SD
##SPECIMEN   : GMIIIA K1008[4][all]
##D2STDCMP   : K1008,(O:38.68),(Na:1.67),(Al:8.92),(Si:21.02),(Ca:6.75),(Rb:2.06),(Sr:10.05),(Zr:0.83),(Cs:2.12),(Ba:2.02),(Ho:1.96),(Tm:1.97),(Yb:1.98)
##DET_HASH   : 12273538-fd48-a23f-0a19-f1e6fa85caef
##CALIB_HASH : 6abaa72c-aa41-8738-0be9-f592914732f3
##WORKING    : 15.0 mm
##DET_NAME   : EDAX All
##DET_MODE   : MediumLE
#SPECTRUM    :
20,
312,
8208,
8140,
58297,
4300,
4935,
8270,
6790,
6421,
14422,
38636,
56842,
58042,
5776,
4163,
3735,
3176,
3104,
3047,
2939,
2882,
2810,
2893,
2581,
2673,
14062,
6018,
2667,
3822,
2467,
3052,
3588,
2793,
2198,
2192,
1740,
1776,
1596,
1449,
1414,
1411,
1344,
1286,
1115,
1116,
1102,
1156,
1645,
953,
989,
1391,
1038,
1366,
1025,
747,
779,
856,
883,
752,
812,
681,
638,
600,
549,
577,
492,
496,
469,
458,
436,
413,
385,
347,
368,
308,
306,
277,
255,
289,
244,
223,
202,
208,
174,
201,
169,
160,
148,
148,
156,
118,
104,
94,
83,
80,
77,
52,
62,
47,
38,
34,
17,
16,
20,
12,
11,
1,
2,
1,
1,
0,
0,
0,
0,
1,
0,
0,
0,
0,
1,
0,
0,
0,
0,
0,
0,
2,
0,
0,
0,
0,
0,
0,
0,
0,
0,
0,
0,
0,
0,
0,
0,
0,
0,
0,
0,
0,
0,
0,
0,
0,
0,
0,
0,
0,
0,
0,
0,
0,
0,
0,
0,
0,
0,
0,
0,
0,
0,
0,
0,
0,
0,
0,
0,
0,
0,
0,
0,
0,
0,
0,
0,
0,
0,
0,
0,
0,
0,
0,
0,
0,
0,
0,
0,
0,
0,
0,
0,
0,
0,
0,
0,
0,
0,
0,
0,
0,
0,
0,
0,
0,
0,
0,
0,
0,
0,
0,
0,
0,
0,
0,
0,
0,
0,
0,
0,
0,
0,
0,
0,
0,
0,
0,
0,
0,
0,
0,
0,
0,
0,
0,
0,
0,
0,
0,
0,
0,
0,
0,
0,
0,
0,
0,
0,
0,
0,
0,
0,
0,
0,
0,
0,
0,
0,
0,
0,
0,
0,
0,
0,
0,
0,
0,
0,
0,
0,
0,
0,
0,
0,
0,
0,
0,
0,
0,
0,
0,
0,
0,
0,
0,
0,
0,
#ENDOFDATA   :

File: GMIIIA K1008[5][4].msa
#FORMAT      : EMSA/MAS Spectral Data File
#VERSION     : 1.0
#TITLE       : GMIIIA K1008[5][all]
#DATE        : 22-SEP-2025
#TIME        : 21:47
#OWNER       : Unknown
#NPOINTS     : 4096
#NCOLUMNS    : 1
#XUNITS      : eV
#YUNITS      : counts
#DATATYPE    : Y
#XPERCHAN    : 9.99778
#OFFSET      : 1.69135
#BEAMKV      : 15
#SIGNALTYPE  : EDS
#ELEVANGLE   : 35
#AZIMANGLE   : 0
#LIVETIME    : 240.025
#REALTIME    : 256.547
#PROBECUR    : 1.21615
#TAUWIND     : 0
#TDEADLYR    : 0
#TACTLYR     : 0.045
#TALWIND     : 0.025
#CHOFFSET    : 0.0
#XLABEL      : Energy (eV)
#YLABEL      : Counts
#XPOSITION   : 11.44434
#YPOSITION   : 15.13162
#ZPOSITION   : 37.36299
#EDSDET      : SD
##SPECIMEN   : GMIIIA K1008[5][all]
##D2STDCMP   : K1008,(O:38.68),(Na:1.67),(Al:8.92),(Si:21.02),(Ca:6.75),(Rb:2.06),(Sr:10.05),(Zr:0.83),(Cs:2.12),(Ba:2.02),(Ho:1.96),(Tm:1.97),(Yb:1.98)
##DET_HASH   : 12273538-fd48-a23f-0a19-f1e6fa85caef
##CALIB_HASH : 6abaa72c-aa41-8738-0be9-f592914732f3
##WORKING    : 15.0 mm
##DET_NAME   : EDAX All
##DET_MODE   : MediumLE
#SPECTRUM    :
23,
318,
8286,
8097,
57403,
4348,
4836,
8230,
6775,
6337,
14103,
38706,
56992,
58289,
5761,
4365,
3670,
3285,
3044,
3093,
2913,
2810,
2828,
2792,
2606,
2688,
14071,
5901,
2696,
3785,
2376,
3119,
3544,
2637,
2223,
2349,
1759,
1817,
1600,
1496,
1467,
1251,
1356,
1314,
1180,
1172,
1085,
1207,
1573,
1020,
985,
1404,
1037,
1319,
1056,
838,
794,
864,
856,
743,
897,
708,
631,
627,
553,
538,
480,
518,
448,
430,
429,
414,
382,
361,
317,
323,
295,
287,
268,
245,
235,
249,
220,
189,
211,
180,
132,
150,
138,
125,
128,
129,
110,
92,
67,
78,
72,
85,
52,
55,
34,
23,
28,
25,
14,
9,
14,
7,
1,
2,
0,
1,
0,
0,
0,
0,
0,
1,
0,
0,
0,
1,
0,
0,
0,
0,
1,
0,
1,
0,
0,
0,
0,
0,
0,
0,
0,
0,
0,
0,
0,
0,
0,
0,
0,
0,
0,
0,
0,
0,
0,
0,
0,
0,
0,
0,
0,
0,
0,
0,
0,
0,
0,
0,
0,
0,
0,
0,
0,
0,
0,
0,
0,
0,
0,
0,
0,
0,
0,
0,
0,
0,
0,
0,
0,
0,
0,
0,
0,
0,
0,
0,
0,
0,
0,
0,
0,
0,
0,
0,
0,
0,
0,
0,
0,
0,
0,
0,
0,
0,
0,
0,
0,
0,
0,
0,
0,
0,
0,
0,
0,
0,
0,
0,
0,
0,
0,
0,
0,
0,
0,
0,
0,
0,
0,
0,
0,
0,
0,
0,
0,
0,
0,
0,
0,
0,
0,
0,
0,
0,
0,
0,
0,
0,
0,
0,
0,
0,
0,
0,
0,
0,
0,
0,
0,
0,
0,
0,
0,
0,
0,
0,
0,
0,
0,
0,
0,
0,
0,
0,
0,
0,
0,
0,
0,
0,
0,
0,
0,
0,
0,
0,
0,
0,
#ENDOFDATA   :