Folder: spex_quant/N132962/Quantification/15 keV/GMIIIA (part 14)

File: GMIIIA K1132[7][4].msa
#FORMAT      : EMSA/MAS Spectral Data File
#VERSION     : 1.0
#TITLE       : GMIIIA K1132[7][all]
#DATE        : 22-SEP-2025
#TIME        : 22:30
#OWNER       : Unknown
#NPOINTS     : 4096
#NCOLUMNS    : 1
#XUNITS      : eV
#YUNITS      : counts
#DATATYPE    : Y
#XPERCHAN    : 9.99778
#OFFSET      : 1.69135
#BEAMKV      : 15
#SIGNALTYPE  : EDS
#ELEVANGLE   : 35
#AZIMANGLE   : 0
#LIVETIME    : 239.919
#REALTIME    : 255.3433
#PROBECUR    : 1.21595
#TAUWIND     : 0
#TDEADLYR    : 0
#TACTLYR     : 0.045
#TALWIND     : 0.025
#CHOFFSET    : 0.0
#XLABEL      : Energy (eV)
#YLABEL      : Counts
#XPOSITION   : 8.25779
#YPOSITION   : 17.43565
#ZPOSITION   : 37.36299
#EDSDET      : SD
##SPECIMEN   : GMIIIA K1132[7][all]
##D2STDCMP   : K1132,(Li:2.32),(O:41.34),(Al:7.94),(Si:21.39),(Ca:10.72),(Cr:0.51),(Ni:1.18),(Mo:1.67),(Ba:13.43)
##DET_HASH   : 12273538-fd48-a23f-0a19-f1e6fa85caef
##CALIB_HASH : 6abaa72c-aa41-8738-0be9-f592914732f3
##WORKING    : 15.0 mm
##DET_NAME   : EDAX All
##DET_MODE   : MediumLE
#SPECTRUM    :
31,
301,
9743,
8744,
67619,
4371,
7124,
5406,
4737,
5061,
9195,
25579,
48192,
23600,
3766,
3452,
5216,
4952,
3328,
3001,
2809,
2676,
2620,
2709,
2426,
2708,
20855,
8058,
3032,
4670,
1897,
2507,
12217,
1738,
3543,
4529,
1733,
2981,
1536,
2098,
1476,
1368,
1287,
1144,
1074,
1095,
998,
971,
892,
882,
827,
855,
787,
1272,
936,
733,
639,
660,
647,
705,
556,
573,
546,
514,
460,
464,
449,
415,
359,
398,
394,
345,
340,
347,
325,
296,
265,
262,
250,
218,
212,
204,
211,
194,
163,
175,
146,
137,
141,
105,
99,
123,
84,
70,
65,
67,
62,
51,
60,
39,
48,
40,
20,
15,
13,
12,
5,
2,
0,
0,
0,
0,
0,
0,
0,
0,
0,
1,
0,
0,
0,
0,
0,
0,
0,
0,
1,
0,
0,
0,
0,
0,
0,
0,
0,
0,
0,
0,
0,
0,
0,
0,
0,
1,
0,
0,
0,
0,
0,
0,
0,
0,
0,
0,
0,
0,
0,
0,
0,
0,
0,
0,
0,
0,
0,
0,
0,
0,
0,
0,
0,
0,
0,
0,
0,
0,
0,
0,
0,
0,
0,
0,
0,
0,
0,
0,
0,
0,
0,
0,
0,
0,
0,
0,
0,
0,
0,
0,
0,
0,
0,
0,
0,
0,
0,
0,
0,
0,
0,
0,
0,
0,
0,
0,
0,
0,
0,
0,
0,
0,
0,
0,
0,
0,
0,
0,
0,
0,
0,
0,
0,
0,
0,
0,
0,
0,
0,
0,
0,
0,
0,
0,
0,
0,
0,
0,
0,
0,
0,
0,
0,
0,
0,
0,
0,
0,
0,
0,
0,
0,
0,
0,
0,
0,
0,
0,
0,
0,
0,
0,
0,
0,
0,
0,
0,
0,
0,
0,
0,
0,
0,
0,
0,
0,
0,
0,
0,
0,
0,
0,
0,
0,
0,
0,
#ENDOFDATA   :

File: GMIIIA K1132[8][4].msa
#FORMAT      : EMSA/MAS Spectral Data File
#VERSION     : 1.0
#TITLE       : GMIIIA K1132[8][all]
#DATE        : 22-SEP-2025
#TIME        : 22:31
#OWNER       : Unknown
#NPOINTS     : 4096
#NCOLUMNS    : 1
#XUNITS      : eV
#YUNITS      : counts
#DATATYPE    : Y
#XPERCHAN    : 9.99778
#OFFSET      : 1.69135
#BEAMKV      : 15
#SIGNALTYPE  : EDS
#ELEVANGLE   : 35
#AZIMANGLE   : 0
#LIVETIME    : 239.917
#REALTIME    : 255.34
#PROBECUR    : 1.21591
#TAUWIND     : 0
#TDEADLYR    : 0
#TACTLYR     : 0.045
#TALWIND     : 0.025
#CHOFFSET    : 0.0
#XLABEL      : Energy (eV)
#YLABEL      : Counts
#XPOSITION   : 8.25641
#YPOSITION   : 17.42916
#ZPOSITION   : 37.36299
#EDSDET      : SD
##SPECIMEN   : GMIIIA K1132[8][all]
##D2STDCMP   : K1132,(Li:2.32),(O:41.34),(Al:7.94),(Si:21.39),(Ca:10.72),(Cr:0.51),(Ni:1.18),(Mo:1.67),(Ba:13.43)
##DET_HASH   : 12273538-fd48-a23f-0a19-f1e6fa85caef
##CALIB_HASH : 6abaa72c-aa41-8738-0be9-f592914732f3
##WORKING    : 15.0 mm
##DET_NAME   : EDAX All
##DET_MODE   : MediumLE
#SPECTRUM    :
28,
266,
9930,
8711,
66806,
4313,
7011,
5564,
4831,
5132,
8924,
25175,
48348,
23667,
3848,
3368,
5328,
4877,
3169,
2845,
2864,
2741,
2605,
2706,
2374,
2593,
20815,
7943,
3132,
4733,
1894,
2461,
12614,
1814,
3666,
4422,
1735,
3016,
1527,
2170,
1543,
1359,
1316,
1166,
1072,
1064,
1021,
920,
907,
865,
822,
761,
751,
1272,
968,
688,
657,
664,
597,
702,
568,
560,
557,
527,
502,
459,
448,
404,
433,
424,
362,
375,
361,
323,
285,
296,
279,
268,
243,
263,
228,
196,
196,
157,
160,
159,
145,
148,
128,
124,
96,
102,
98,
103,
53,
70,
58,
59,
50,
42,
30,
27,
30,
13,
16,
8,
11,
3,
3,
0,
0,
0,
0,
0,
1,
1,
0,
1,
0,
0,
0,
0,
0,
0,
0,
0,
1,
0,
1,
0,
0,
0,
0,
0,
1,
0,
0,
0,
0,
0,
0,
0,
0,
0,
1,
0,
0,
0,
0,
0,
0,
0,
0,
0,
0,
0,
0,
0,
0,
0,
0,
0,
0,
0,
0,
0,
0,
0,
0,
0,
0,
0,
0,
0,
0,
0,
0,
0,
0,
0,
0,
0,
0,
0,
0,
0,
0,
0,
0,
0,
0,
0,
0,
0,
0,
0,
0,
0,
0,
0,
0,
0,
0,
0,
0,
0,
0,
0,
0,
0,
0,
0,
0,
0,
0,
0,
0,
0,
0,
0,
0,
0,
0,
0,
0,
0,
0,
0,
0,
0,
0,
0,
0,
0,
0,
0,
0,
0,
0,
0,
0,
0,
0,
0,
0,
0,
0,
0,
0,
0,
0,
0,
0,
0,
0,
0,
0,
0,
0,
0,
0,
0,
0,
0,
0,
0,
0,
0,
0,
0,
0,
0,
0,
0,
0,
0,
0,
0,
0,
0,
0,
0,
0,
0,
0,
0,
0,
0,
0,
0,
0,
0,
0,
0,
#ENDOFDATA   :

File: GMIIIA K1229[0][4].msa
#FORMAT      : EMSA/MAS Spectral Data File
#VERSION     : 1.0
#TITLE       : GMIIIA K1229[0][all]
#DATE        : 22-SEP-2025
#TIME        : 22:43
#OWNER       : Unknown
#NPOINTS     : 4096
#NCOLUMNS    : 1
#XUNITS      : eV
#YUNITS      : counts
#DATATYPE    : Y
#XPERCHAN    : 9.99778
#OFFSET      : 1.69135
#BEAMKV      : 15
#SIGNALTYPE  : EDS
#ELEVANGLE   : 35
#AZIMANGLE   : 0
#LIVETIME    : 239.976
#REALTIME    : 256.038
#PROBECUR    : 1.21591
#TAUWIND     : 0
#TDEADLYR    : 0
#TACTLYR     : 0.045
#TALWIND     : 0.025
#CHOFFSET    : 0.0
#XLABEL      : Energy (eV)
#YLABEL      : Counts
#XPOSITION   : 3.98254
#YPOSITION   : 17.46144
#ZPOSITION   : 37.36299
#EDSDET      : SD
##SPECIMEN   : GMIIIA K1229[0][all]
##D2STDCMP   : K1229,(O:41.02),(Mg:1.77),(Al:9.34),(Si:22.0),(Ca:10.51),(Sr:7.46),(Ba:7.9)
##DET_HASH   : 12273538-fd48-a23f-0a19-f1e6fa85caef
##CALIB_HASH : 6abaa72c-aa41-8738-0be9-f592914732f3
##WORKING    : 15.0 mm
##DET_NAME   : EDAX All
##DET_MODE   : MediumLE
#SPECTRUM    :
27,
313,
9036,
8029,
60156,
3918,
4558,
5217,
5336,
18819,
10407,
30586,
52101,
49930,
5183,
3021,
3607,
2960,
2886,
2794,
2788,
2736,
2558,
2671,
2400,
2562,
20305,
7942,
2956,
4582,
1872,
2199,
8082,
1654,
2751,
3250,
1570,
2347,
1374,
1505,
1378,
1288,
1241,
1140,
1082,
1028,
993,
985,
859,
850,
823,
763,
740,
809,
724,
660,
680,
616,
583,
548,
536,
545,
528,
456,
480,
475,
440,
402,
423,
375,
360,
360,
330,
339,
294,
300,
283,
263,
252,
223,
227,
221,
192,
167,
163,
163,
132,
137,
126,
97,
102,
96,
120,
77,
70,
50,
76,
51,
44,
40,
30,
22,
26,
19,
15,
10,
4,
1,
2,
1,
1,
0,
0,
0,
0,
0,
1,
0,
0,
0,
0,
0,
0,
0,
0,
0,
0,
0,
0,
0,
0,
0,
0,
0,
0,
0,
0,
0,
0,
0,
0,
0,
1,
0,
0,
0,
0,
0,
0,
0,
0,
0,
0,
0,
0,
0,
0,
0,
0,
0,
0,
0,
0,
0,
0,
0,
0,
0,
0,
0,
0,
0,
0,
0,
0,
0,
0,
0,
0,
0,
0,
0,
0,
0,
0,
0,
0,
0,
0,
0,
0,
0,
0,
0,
0,
0,
0,
0,
0,
0,
0,
0,
0,
0,
0,
0,
0,
0,
0,
0,
0,
0,
0,
0,
0,
0,
0,
0,
0,
0,
0,
0,
0,
0,
0,
0,
0,
0,
0,
0,
0,
0,
0,
0,
0,
0,
0,
0,
0,
0,
0,
0,
0,
0,
0,
0,
0,
0,
0,
0,
0,
0,
0,
0,
0,
0,
0,
0,
0,
0,
0,
0,
0,
0,
0,
0,
0,
0,
0,
0,
0,
0,
0,
0,
0,
0,
0,
0,
0,
0,
0,
0,
0,
0,
0,
0,
0,
0,
0,
0,
0,
0,
0,
0,
#ENDOFDATA   :

File: GMIIIA K1229[1][4].msa
#FORMAT      : EMSA/MAS Spectral Data File
#VERSION     : 1.0
#TITLE       : GMIIIA K1229[1][all]
#DATE        : 22-SEP-2025
#TIME        : 22:44
#OWNER       : Unknown
#NPOINTS     : 4096
#NCOLUMNS    : 1
#XUNITS      : eV
#YUNITS      : counts
#DATATYPE    : Y
#XPERCHAN    : 9.99778
#OFFSET      : 1.69135
#BEAMKV      : 15
#SIGNALTYPE  : EDS
#ELEVANGLE   : 35
#AZIMANGLE   : 0
#LIVETIME    : 239.9747
#REALTIME    : 256.035
#PROBECUR    : 1.21591
#TAUWIND     : 0
#TDEADLYR    : 0
#TACTLYR     : 0.045
#TALWIND     : 0.025
#CHOFFSET    : 0.0
#XLABEL      : Energy (eV)
#YLABEL      : Counts
#XPOSITION   : 3.97542
#YPOSITION   : 17.53248
#ZPOSITION   : 37.36299
#EDSDET      : SD
##SPECIMEN   : GMIIIA K1229[1][all]
##D2STDCMP   : K1229,(O:41.02),(Mg:1.77),(Al:9.34),(Si:22.0),(Ca:10.51),(Sr:7.46),(Ba:7.9)
##DET_HASH   : 12273538-fd48-a23f-0a19-f1e6fa85caef
##CALIB_HASH : 6abaa72c-aa41-8738-0be9-f592914732f3
##WORKING    : 15.0 mm
##DET_NAME   : EDAX All
##DET_MODE   : MediumLE
#SPECTRUM    :
34,
263,
8881,
7915,
60802,
3919,
4585,
5430,
5243,
18437,
10120,
30654,
52008,
50202,
4887,
3012,
3573,
2997,
2876,
2963,
2735,
2651,
2615,
2618,
2375,
2643,
20395,
7893,
2861,
4728,
1846,
2173,
8238,
1661,
2618,
3118,
1697,
2379,
1310,
1524,
1429,
1190,
1190,
1092,
973,
1020,
955,
953,
892,
808,
787,
798,
790,
750,
721,
729,
638,
622,
614,
564,
512,
525,
530,
451,
450,
471,
482,
385,
398,
412,
341,
347,
311,
303,
299,
279,
277,
252,
228,
226,
216,
190,
171,
161,
180,
145,
151,
153,
138,
118,
95,
100,
90,
82,
76,
72,
68,
45,
37,
45,
27,
31,
22,
27,
12,
8,
4,
4,
2,
0,
1,
0,
0,
0,
0,
0,
0,
0,
0,
0,
0,
0,
1,
0,
0,
1,
0,
0,
0,
0,
0,
1,
0,
0,
0,
0,
0,
0,
1,
0,
0,
0,
0,
0,
0,
0,
0,
0,
0,
0,
0,
0,
0,
0,
0,
0,
0,
0,
0,
0,
0,
0,
0,
0,
0,
0,
0,
0,
0,
0,
0,
0,
0,
0,
0,
0,
0,
0,
0,
0,
0,
0,
0,
0,
0,
0,
0,
0,
0,
0,
0,
0,
0,
0,
0,
0,
0,
0,
0,
0,
0,
0,
0,
0,
0,
0,
0,
0,
0,
0,
0,
0,
0,
0,
0,
0,
0,
0,
0,
0,
0,
0,
0,
0,
0,
0,
0,
0,
0,
0,
0,
0,
0,
0,
0,
0,
0,
0,
0,
0,
0,
0,
0,
0,
0,
0,
0,
0,
0,
0,
0,
0,
0,
0,
0,
0,
0,
0,
0,
0,
0,
0,
0,
0,
0,
0,
0,
0,
0,
0,
0,
0,
0,
0,
0,
0,
0,
0,
0,
0,
0,
0,
0,
0,
0,
0,
0,
0,
0,
0,
0,
0,
0,
0,
#ENDOFDATA   :

File: GMIIIA K1229[2][4].msa
#FORMAT      : EMSA/MAS Spectral Data File
#VERSION     : 1.0
#TITLE       : GMIIIA K1229[2][all]
#DATE        : 22-SEP-2025
#TIME        : 22:45
#OWNER       : Unknown
#NPOINTS     : 4096
#NCOLUMNS    : 1
#XUNITS      : eV
#YUNITS      : counts
#DATATYPE    : Y
#XPERCHAN    : 9.99778
#OFFSET      : 1.69135
#BEAMKV      : 15
#SIGNALTYPE  : EDS
#ELEVANGLE   : 35
#AZIMANGLE   : 0
#LIVETIME    : 239.924
#REALTIME    : 255.985
#PROBECUR    : 1.21591
#TAUWIND     : 0
#TDEADLYR    : 0
#TACTLYR     : 0.045
#TALWIND     : 0.025
#CHOFFSET    : 0.0
#XLABEL      : Energy (eV)
#YLABEL      : Counts
#XPOSITION   : 3.98336
#YPOSITION   : 17.43686
#ZPOSITION   : 37.36299
#EDSDET      : SD
##SPECIMEN   : GMIIIA K1229[2][all]
##D2STDCMP   : K1229,(O:41.02),(Mg:1.77),(Al:9.34),(Si:22.0),(Ca:10.51),(Sr:7.46),(Ba:7.9)
##DET_HASH   : 12273538-fd48-a23f-0a19-f1e6fa85caef
##CALIB_HASH : 6abaa72c-aa41-8738-0be9-f592914732f3
##WORKING    : 15.0 mm
##DET_NAME   : EDAX All
##DET_MODE   : MediumLE
#SPECTRUM    :
25,
241,
9069,
8079,
60493,
4035,
4526,
5462,
5234,
18611,
10098,
30708,
51943,
50292,
5042,
3169,
3564,
3065,
2861,
2816,
2738,
2652,
2502,
2613,
2338,
2649,
20431,
7976,
2841,
4581,
1881,
2130,
8183,
1663,
2659,
3238,
1634,
2348,
1354,
1547,
1417,
1215,
1207,
1157,
1075,
960,
1001,
957,
836,
853,
735,
769,
819,
749,
720,
728,
695,
682,
557,
564,
516,
520,
495,
491,
481,
445,
400,
415,
424,
358,
347,
333,
325,
327,
285,
297,
278,
268,
250,
228,
228,
182,
212,
147,
136,
143,
130,
113,
126,
111,
105,
94,
91,
72,
66,
57,
79,
51,
46,
42,
36,
29,
18,
20,
20,
10,
9,
1,
0,
0,
0,
0,
0,
0,
1,
1,
0,
2,
0,
0,
0,
0,
0,
1,
0,
0,
0,
0,
1,
0,
0,
0,
1,
0,
0,
0,
0,
0,
0,
0,
0,
0,
0,
0,
0,
0,
0,
0,
0,
0,
0,
0,
0,
0,
0,
0,
0,
0,
0,
0,
0,
0,
0,
0,
0,
0,
1,
0,
0,
0,
0,
0,
0,
0,
0,
0,
0,
0,
0,
0,
0,
0,
0,
0,
0,
0,
0,
0,
0,
0,
0,
0,
0,
0,
0,
0,
0,
0,
0,
0,
0,
0,
0,
0,
0,
0,
0,
0,
0,
0,
0,
0,
0,
0,
0,
0,
0,
0,
0,
0,
0,
0,
0,
0,
0,
0,
0,
0,
0,
0,
0,
0,
0,
0,
0,
0,
0,
0,
0,
0,
0,
0,
0,
0,
0,
0,
0,
0,
0,
0,
0,
0,
0,
0,
0,
0,
0,
0,
0,
0,
0,
0,
0,
0,
0,
0,
0,
0,
0,
0,
0,
0,
0,
0,
0,
0,
0,
0,
0,
0,
0,
0,
0,
0,
0,
0,
0,
0,
0,
0,
0,
0,
0,
0,
#ENDOFDATA   :

File: GMIIIA K1229[3][4].msa
#FORMAT      : EMSA/MAS Spectral Data File
#VERSION     : 1.0
#TITLE       : GMIIIA K1229[3][all]
#DATE        : 22-SEP-2025
#TIME        : 22:47
#OWNER       : Unknown
#NPOINTS     : 4096
#NCOLUMNS    : 1
#XUNITS      : eV
#YUNITS      : counts
#DATATYPE    : Y
#XPERCHAN    : 9.99778
#OFFSET      : 1.69135
#BEAMKV      : 15
#SIGNALTYPE  : EDS
#ELEVANGLE   : 35
#AZIMANGLE   : 0
#LIVETIME    : 239.9258
#REALTIME    : 255.981
#PROBECUR    : 1.21591
#TAUWIND     : 0
#TDEADLYR    : 0
#TACTLYR     : 0.045
#TALWIND     : 0.025
#CHOFFSET    : 0.0
#XLABEL      : Energy (eV)
#YLABEL      : Counts
#XPOSITION   : 3.98419
#YPOSITION   : 17.4122
#ZPOSITION   : 37.36299
#EDSDET      : SD
##SPECIMEN   : GMIIIA K1229[3][all]
##D2STDCMP   : K1229,(O:41.02),(Mg:1.77),(Al:9.34),(Si:22.0),(Ca:10.51),(Sr:7.46),(Ba:7.9)
##DET_HASH   : 12273538-fd48-a23f-0a19-f1e6fa85caef
##CALIB_HASH : 6abaa72c-aa41-8738-0be9-f592914732f3
##WORKING    : 15.0 mm
##DET_NAME   : EDAX All
##DET_MODE   : MediumLE
#SPECTRUM    :
31,
264,
8908,
7811,
60133,
3927,
4491,
5467,
5375,
18447,
10231,
30740,
52269,
49770,
5055,
3081,
3592,
2929,
3005,
2894,
2659,
2693,
2576,
2577,
2263,
2594,
20355,
7911,
2939,
4662,
1895,
2191,
8022,
1653,
2780,
3146,
1569,
2362,
1305,
1526,
1430,
1252,
1177,
1059,
1098,
1058,
962,
936,
886,
900,
814,
813,
733,
745,
741,
691,
638,
598,
558,
585,
522,
504,
496,
503,
488,
483,
456,
420,
404,
380,
370,
371,
317,
306,
305,
302,
262,
238,
276,
222,
220,
211,
194,
169,
174,
142,
145,
141,
127,
124,
109,
93,
87,
76,
64,
64,
62,
44,
43,
49,
29,
28,
30,
29,
14,
3,
7,
2,
0,
0,
0,
2,
0,
0,
1,
0,
0,
1,
0,
0,
0,
0,
1,
0,
0,
0,
0,
0,
0,
0,
0,
1,
1,
0,
0,
0,
0,
0,
0,
0,
0,
0,
0,
0,
0,
0,
0,
1,
0,
0,
0,
0,
0,
0,
0,
0,
0,
0,
0,
0,
0,
0,
0,
0,
0,
0,
0,
0,
0,
0,
0,
0,
0,
0,
0,
0,
0,
0,
0,
0,
0,
0,
0,
0,
0,
0,
0,
0,
0,
0,
0,
0,
0,
0,
0,
0,
0,
0,
0,
0,
0,
0,
0,
0,
0,
0,
0,
0,
0,
0,
0,
0,
0,
0,
0,
0,
0,
0,
0,
0,
0,
0,
0,
0,
0,
0,
0,
0,
0,
0,
0,
0,
0,
0,
0,
0,
0,
0,
0,
0,
0,
0,
0,
0,
0,
0,
0,
0,
0,
0,
0,
0,
0,
0,
0,
0,
0,
0,
0,
0,
0,
0,
0,
0,
0,
0,
0,
0,
0,
0,
0,
0,
0,
0,
0,
0,
0,
0,
0,
0,
0,
0,
0,
0,
0,
0,
0,
0,
0,
0,
0,
0,
0,
0,
#ENDOFDATA   :

File: GMIIIA K1229[4][4].msa
#FORMAT      : EMSA/MAS Spectral Data File
#VERSION     : 1.0
#TITLE       : GMIIIA K1229[4][all]
#DATE        : 22-SEP-2025
#TIME        : 22:48
#OWNER       : Unknown
#NPOINTS     : 4096
#NCOLUMNS    : 1
#XUNITS      : eV
#YUNITS      : counts
#DATATYPE    : Y
#XPERCHAN    : 9.99778
#OFFSET      : 1.69135
#BEAMKV      : 15
#SIGNALTYPE  : EDS
#ELEVANGLE   : 35
#AZIMANGLE   : 0
#LIVETIME    : 239.914
#REALTIME    : 255.98
#PROBECUR    : 1.21591
#TAUWIND     : 0
#TDEADLYR    : 0
#TACTLYR     : 0.045
#TALWIND     : 0.025
#CHOFFSET    : 0.0
#XLABEL      : Energy (eV)
#YLABEL      : Counts
#XPOSITION   : 4.002
#YPOSITION   : 17.40276
#ZPOSITION   : 37.36299
#EDSDET      : SD
##SPECIMEN   : GMIIIA K1229[4][all]
##D2STDCMP   : K1229,(O:41.02),(Mg:1.77),(Al:9.34),(Si:22.0),(Ca:10.51),(Sr:7.46),(Ba:7.9)
##DET_HASH   : 12273538-fd48-a23f-0a19-f1e6fa85caef
##CALIB_HASH : 6abaa72c-aa41-8738-0be9-f592914732f3
##WORKING    : 15.0 mm
##DET_NAME   : EDAX All
##DET_MODE   : MediumLE
#SPECTRUM    :
18,
257,
8841,
7820,
60300,
3935,
4466,
5347,
5321,
18859,
10145,
31110,
52386,
50044,
5109,
2952,
3532,
3068,
2904,
2868,
2719,
2736,
2543,
2631,
2539,
2649,
20240,
7896,
3079,
4645,
1927,
2177,
8067,
1732,
2617,
3166,
1607,
2419,
1322,
1561,
1453,
1317,
1202,
1072,
1037,
1030,
989,
978,
914,
865,
854,
810,
793,
720,
664,
642,
659,
667,
565,
561,
568,
507,
528,
529,
451,
437,
439,
383,
415,
405,
353,
320,
317,
313,
323,
296,
284,
236,
220,
197,
217,
220,
168,
183,
163,
154,
144,
131,
132,
104,
111,
117,
83,
83,
69,
63,
58,
56,
38,
39,
40,
37,
15,
16,
17,
10,
4,
2,
2,
2,
0,
1,
0,
0,
0,
0,
1,
0,
0,
0,
0,
0,
0,
0,
0,
2,
0,
0,
0,
0,
0,
0,
0,
0,
0,
0,
0,
0,
0,
0,
1,
0,
0,
0,
0,
0,
0,
0,
0,
0,
0,
0,
0,
0,
0,
0,
0,
0,
0,
0,
0,
0,
0,
0,
0,
0,
0,
0,
0,
0,
0,
0,
0,
0,
0,
0,
0,
0,
0,
0,
0,
0,
0,
0,
0,
0,
0,
0,
0,
0,
0,
0,
0,
0,
0,
0,
0,
0,
0,
0,
0,
0,
0,
0,
0,
0,
0,
0,
0,
0,
0,
0,
0,
0,
0,
0,
0,
0,
0,
0,
0,
0,
0,
0,
0,
0,
0,
0,
0,
0,
0,
0,
0,
0,
0,
0,
0,
0,
0,
0,
0,
0,
0,
0,
0,
0,
0,
0,
0,
0,
0,
0,
0,
0,
0,
0,
0,
0,
0,
0,
0,
0,
0,
0,
0,
0,
0,
0,
0,
0,
0,
0,
0,
0,
0,
0,
0,
0,
0,
0,
0,
0,
0,
0,
0,
0,
0,
0,
0,
0,
0,
0,
0,
0,
#ENDOFDATA   :

File: GMIIIA K1229[5][4].msa
#FORMAT      : EMSA/MAS Spectral Data File
#VERSION     : 1.0
#TITLE       : GMIIIA K1229[5][all]
#DATE        : 22-SEP-2025
#TIME        : 22:49
#OWNER       : Unknown
#NPOINTS     : 4096
#NCOLUMNS    : 1
#XUNITS      : eV
#YUNITS      : counts
#DATATYPE    : Y
#XPERCHAN    : 9.99778
#OFFSET      : 1.69135
#BEAMKV      : 15
#SIGNALTYPE  : EDS
#ELEVANGLE   : 35
#AZIMANGLE   : 0
#LIVETIME    : 239.98
#REALTIME    : 256.049
#PROBECUR    : 1.21591
#TAUWIND     : 0
#TDEADLYR    : 0
#TACTLYR     : 0.045
#TALWIND     : 0.025
#CHOFFSET    : 0.0
#XLABEL      : Energy (eV)
#YLABEL      : Counts
#XPOSITION   : 3.92768
#YPOSITION   : 17.49075
#ZPOSITION   : 37.36299
#EDSDET      : SD
##SPECIMEN   : GMIIIA K1229[5][all]
##D2STDCMP   : K1229,(O:41.02),(Mg:1.77),(Al:9.34),(Si:22.0),(Ca:10.51),(Sr:7.46),(Ba:7.9)
##DET_HASH   : 12273538-fd48-a23f-0a19-f1e6fa85caef
##CALIB_HASH : 6abaa72c-aa41-8738-0be9-f592914732f3
##WORKING    : 15.0 mm
##DET_NAME   : EDAX All
##DET_MODE   : MediumLE
#SPECTRUM    :
33,
278,
9010,
8067,
60317,
3895,
4469,
5327,
5420,
18700,
10178,
30848,
52166,
50044,
5097,
3076,
3498,
3091,
2881,
2778,
2730,
2574,
2582,
2550,
2392,
2716,
20076,
7861,
2909,
4696,
1894,
2143,
8046,
1707,
2717,
3193,
1634,
2430,
1359,
1565,
1451,
1322,
1207,
1106,
1084,
1019,
978,
902,
831,
879,
851,
784,
781,
739,
652,
682,
677,
648,
578,
604,
562,
545,
501,
500,
512,
451,
418,
425,
390,
333,
388,
311,
359,
332,
284,
268,
269,
268,
236,
248,
180,
201,
192,
153,
151,
147,
152,
148,
117,
99,
116,
127,
86,
71,
73,
79,
72,
60,
56,
43,
44,
23,
27,
22,
16,
9,
7,
3,
1,
0,
0,
0,
0,
0,
0,
0,
0,
0,
0,
0,
1,
0,
0,
0,
0,
1,
1,
1,
0,
0,
0,
0,
0,
0,
0,
0,
0,
0,
0,
0,
0,
0,
0,
0,
0,
0,
0,
0,
0,
0,
0,
0,
0,
0,
0,
0,
0,
0,
0,
0,
0,
0,
0,
0,
0,
0,
0,
0,
0,
0,
0,
0,
0,
0,
0,
0,
0,
0,
0,
0,
0,
0,
0,
0,
0,
0,
0,
0,
0,
0,
0,
0,
0,
0,
0,
0,
0,
0,
0,
0,
0,
0,
0,
0,
0,
0,
0,
0,
0,
0,
0,
0,
0,
0,
0,
0,
0,
0,
0,
0,
0,
0,
0,
0,
0,
0,
0,
0,
0,
0,
0,
0,
0,
0,
0,
0,
0,
0,
0,
0,
0,
0,
0,
0,
0,
0,
0,
0,
0,
0,
0,
0,
0,
0,
0,
0,
0,
0,
0,
0,
0,
0,
0,
0,
0,
0,
0,
0,
0,
0,
0,
0,
0,
0,
0,
0,
0,
0,
0,
0,
0,
0,
0,
0,
0,
0,
0,
0,
0,
0,
0,
0,
0,
0,
#ENDOFDATA   :

File: GMIIIA K1229[6][4].msa
#FORMAT      : EMSA/MAS Spectral Data File
#VERSION     : 1.0
#TITLE       : GMIIIA K1229[6][all]
#DATE        : 22-SEP-2025
#TIME        : 22:50
#OWNER       : Unknown
#NPOINTS     : 4096
#NCOLUMNS    : 1
#XUNITS      : eV
#YUNITS      : counts
#DATATYPE    : Y
#XPERCHAN    : 9.99778
#OFFSET      : 1.69135
#BEAMKV      : 15
#SIGNALTYPE  : EDS
#ELEVANGLE   : 35
#AZIMANGLE   : 0
#LIVETIME    : 239.917
#REALTIME    : 255.986
#PROBECUR    : 1.21591
#TAUWIND     : 0
#TDEADLYR    : 0
#TACTLYR     : 0.045
#TALWIND     : 0.025
#CHOFFSET    : 0.0
#XLABEL      : Energy (eV)
#YLABEL      : Counts
#XPOSITION   : 3.96029
#YPOSITION   : 17.38086
#ZPOSITION   : 37.36299
#EDSDET      : SD
##SPECIMEN   : GMIIIA K1229[6][all]
##D2STDCMP   : K1229,(O:41.02),(Mg:1.77),(Al:9.34),(Si:22.0),(Ca:10.51),(Sr:7.46),(Ba:7.9)
##DET_HASH   : 12273538-fd48-a23f-0a19-f1e6fa85caef
##CALIB_HASH : 6abaa72c-aa41-8738-0be9-f592914732f3
##WORKING    : 15.0 mm
##DET_NAME   : EDAX All
##DET_MODE   : MediumLE
#SPECTRUM    :
21,
283,
9023,
8042,
60682,
3866,
4466,
5446,
5298,
18737,
10123,
30681,
51722,
49736,
4973,
3138,
3565,
3038,
2940,
2840,
2696,
2773,
2666,
2612,
2477,
2553,
20199,
7928,
2957,
4787,
1814,
2089,
8068,
1699,
2713,
3226,
1630,
2319,
1358,
1498,
1432,
1221,
1222,
1128,
1048,
938,
1011,
902,
911,
842,
772,
754,
760,
747,
730,
722,
669,
616,
595,
602,
568,
541,
539,
492,
468,
442,
409,
384,
396,
398,
347,
347,
318,
331,
273,
285,
253,
248,
241,
224,
202,
221,
183,
180,
173,
168,
141,
130,
125,
159,
116,
91,
102,
81,
80,
61,
63,
45,
39,
41,
33,
26,
17,
27,
13,
12,
8,
0,
1,
0,
1,
0,
0,
1,
0,
0,
0,
1,
0,
0,
0,
1,
0,
0,
0,
1,
0,
0,
0,
0,
0,
0,
0,
0,
0,
0,
0,
0,
0,
0,
0,
0,
0,
0,
0,
0,
0,
0,
0,
0,
0,
0,
0,
0,
0,
0,
0,
1,
0,
0,
0,
0,
0,
0,
0,
0,
0,
0,
0,
0,
0,
0,
0,
0,
0,
0,
0,
0,
0,
0,
0,
1,
0,
0,
0,
0,
0,
0,
0,
0,
0,
0,
0,
0,
0,
0,
0,
0,
0,
0,
0,
0,
0,
0,
0,
0,
0,
0,
0,
0,
0,
0,
0,
0,
0,
0,
0,
0,
0,
0,
0,
0,
0,
0,
0,
0,
0,
0,
0,
0,
0,
0,
0,
0,
0,
0,
0,
0,
0,
0,
0,
0,
0,
0,
0,
0,
0,
0,
0,
0,
0,
0,
0,
0,
0,
0,
0,
0,
0,
0,
0,
0,
0,
0,
0,
0,
0,
0,
0,
0,
0,
0,
0,
0,
0,
0,
0,
0,
0,
0,
0,
0,
0,
0,
0,
0,
0,
0,
0,
0,
0,
0,
0,
0,
#ENDOFDATA   :

File: GMIIIA K1229[7][4].msa
#FORMAT      : EMSA/MAS Spectral Data File
#VERSION     : 1.0
#TITLE       : GMIIIA K1229[7][all]
#DATE        : 22-SEP-2025
#TIME        : 22:51
#OWNER       : Unknown
#NPOINTS     : 4096
#NCOLUMNS    : 1
#XUNITS      : eV
#YUNITS      : counts
#DATATYPE    : Y
#XPERCHAN    : 9.99778
#OFFSET      : 1.69135
#BEAMKV      : 15
#SIGNALTYPE  : EDS
#ELEVANGLE   : 35
#AZIMANGLE   : 0
#LIVETIME    : 239.971
#REALTIME    : 256.047
#PROBECUR    : 1.21591
#TAUWIND     : 0
#TDEADLYR    : 0
#TACTLYR     : 0.045
#TALWIND     : 0.025
#CHOFFSET    : 0.0
#XLABEL      : Energy (eV)
#YLABEL      : Counts
#XPOSITION   : 3.93555
#YPOSITION   : 17.40822
#ZPOSITION   : 37.36299
#EDSDET      : SD
##SPECIMEN   : GMIIIA K1229[7][all]
##D2STDCMP   : K1229,(O:41.02),(Mg:1.77),(Al:9.34),(Si:22.0),(Ca:10.51),(Sr:7.46),(Ba:7.9)
##DET_HASH   : 12273538-fd48-a23f-0a19-f1e6fa85caef
##CALIB_HASH : 6abaa72c-aa41-8738-0be9-f592914732f3
##WORKING    : 15.0 mm
##DET_NAME   : EDAX All
##DET_MODE   : MediumLE
#SPECTRUM    :
22,
256,
8978,
7974,
60869,
3980,
4550,
5340,
5352,
18687,
10309,
30793,
52018,
49689,
4951,
3158,
3591,
3078,
2986,
2894,
2714,
2672,
2588,
2663,
2450,
2541,
20481,
7948,
2961,
4719,
1877,
2134,
8101,
1693,
2628,
3204,
1613,
2449,
1366,
1496,
1455,
1242,
1130,
1101,
1043,
1053,
996,
920,
873,
874,
794,
795,
797,
766,
720,
653,
669,
587,
614,
584,
560,
527,
526,
470,
478,
423,
438,
424,
392,
383,
341,
314,
365,
298,
288,
309,
257,
242,
225,
242,
197,
208,
200,
172,
177,
151,
150,
135,
134,
99,
110,
105,
76,
68,
87,
73,
41,
54,
59,
30,
32,
18,
24,
17,
6,
12,
7,
4,
1,
0,
0,
0,
0,
0,
0,
0,
0,
0,
0,
0,
0,
1,
1,
0,
0,
0,
0,
0,
0,
0,
0,
0,
0,
0,
0,
0,
0,
0,
1,
0,
0,
0,
0,
0,
0,
0,
0,
0,
0,
0,
0,
0,
0,
0,
0,
0,
0,
0,
0,
0,
0,
0,
0,
0,
0,
0,
0,
0,
0,
0,
0,
0,
0,
0,
0,
0,
0,
0,
0,
0,
0,
0,
0,
0,
0,
0,
0,
0,
0,
0,
0,
0,
0,
0,
0,
0,
0,
0,
0,
0,
0,
0,
0,
0,
0,
0,
0,
0,
0,
0,
0,
0,
0,
0,
0,
0,
0,
0,
0,
0,
0,
0,
0,
0,
0,
0,
0,
0,
0,
0,
0,
0,
0,
0,
0,
0,
0,
0,
0,
0,
0,
0,
0,
0,
0,
0,
0,
0,
0,
0,
0,
0,
0,
0,
0,
0,
0,
0,
0,
0,
0,
0,
0,
0,
0,
0,
0,
0,
0,
0,
0,
0,
0,
0,
0,
0,
0,
0,
0,
0,
0,
0,
0,
0,
0,
0,
0,
0,
0,
0,
0,
0,
0,
0,
#ENDOFDATA   :

File: GMIIIA K1229[8][4].msa
#FORMAT      : EMSA/MAS Spectral Data File
#VERSION     : 1.0
#TITLE       : GMIIIA K1229[8][all]
#DATE        : 22-SEP-2025
#TIME        : 22:52
#OWNER       : Unknown
#NPOINTS     : 4096
#NCOLUMNS    : 1
#XUNITS      : eV
#YUNITS      : counts
#DATATYPE    : Y
#XPERCHAN    : 9.99778
#OFFSET      : 1.69135
#BEAMKV      : 15
#SIGNALTYPE  : EDS
#ELEVANGLE   : 35
#AZIMANGLE   : 0
#LIVETIME    : 239.925
#REALTIME    : 255.985
#PROBECUR    : 1.21591
#TAUWIND     : 0
#TDEADLYR    : 0
#TACTLYR     : 0.045
#TALWIND     : 0.025
#CHOFFSET    : 0.0
#XLABEL      : Energy (eV)
#YLABEL      : Counts
#XPOSITION   : 4.02572
#YPOSITION   : 17.48544
#ZPOSITION   : 37.36299
#EDSDET      : SD
##SPECIMEN   : GMIIIA K1229[8][all]
##D2STDCMP   : K1229,(O:41.02),(Mg:1.77),(Al:9.34),(Si:22.0),(Ca:10.51),(Sr:7.46),(Ba:7.9)
##DET_HASH   : 12273538-fd48-a23f-0a19-f1e6fa85caef
##CALIB_HASH : 6abaa72c-aa41-8738-0be9-f592914732f3
##WORKING    : 15.0 mm
##DET_NAME   : EDAX All
##DET_MODE   : MediumLE
#SPECTRUM    :
33,
255,
8896,
7935,
60655,
3917,
4401,
5477,
5168,
18592,
9999,
30835,
51903,
50151,
5040,
3065,
3446,
3029,
2887,
2880,
2752,
2696,
2582,
2554,
2375,
2735,
20557,
7781,
2861,
4595,
1779,
2090,
8034,
1655,
2667,
3168,
1617,
2408,
1349,
1467,
1419,
1283,
1224,
1082,
1069,
972,
1002,
948,
894,
892,
814,
803,
814,
771,
673,
660,
690,
618,
625,
570,
549,
577,
548,
492,
484,
478,
430,
423,
401,
372,
387,
337,
304,
316,
281,
280,
294,
250,
234,
232,
221,
206,
173,
168,
157,
168,
159,
153,
151,
126,
116,
98,
76,
70,
76,
56,
62,
66,
53,
38,
28,
31,
27,
17,
22,
5,
4,
1,
0,
0,
0,
0,
0,
0,
0,
0,
0,
0,
0,
0,
0,
0,
0,
0,
0,
0,
0,
0,
0,
0,
1,
0,
0,
0,
0,
0,
0,
0,
0,
0,
0,
1,
0,
0,
0,
0,
0,
0,
0,
0,
0,
0,
0,
0,
0,
0,
0,
0,
0,
0,
0,
0,
0,
0,
0,
0,
0,
0,
0,
0,
0,
0,
0,
0,
0,
0,
0,
0,
0,
0,
0,
0,
0,
0,
0,
0,
0,
0,
0,
0,
0,
0,
0,
0,
0,
0,
0,
0,
0,
0,
0,
0,
0,
0,
0,
0,
0,
0,
0,
0,
0,
0,
0,
0,
0,
0,
0,
0,
0,
0,
0,
0,
0,
0,
0,
0,
0,
0,
0,
0,
0,
0,
0,
0,
0,
0,
0,
0,
0,
0,
0,
0,
0,
0,
0,
0,
0,
0,
0,
0,
0,
0,
0,
0,
0,
0,
0,
0,
0,
0,
0,
0,
0,
0,
0,
0,
0,
0,
0,
0,
0,
0,
0,
0,
0,
0,
0,
0,
0,
0,
0,
0,
0,
0,
0,
0,
0,
0,
0,
0,
0,
0,
0,
0,
#ENDOFDATA   :