Folder: spex_quant/N132962/Quantification/15 keV/GMIIIA (part 11)

File: GMIIIA K1053[1][4].msa
#FORMAT      : EMSA/MAS Spectral Data File
#VERSION     : 1.0
#TITLE       : GMIIIA K1053[1][all]
#DATE        : 22-SEP-2025
#TIME        : 21:11
#OWNER       : Unknown
#NPOINTS     : 4096
#NCOLUMNS    : 1
#XUNITS      : eV
#YUNITS      : counts
#DATATYPE    : Y
#XPERCHAN    : 9.99778
#OFFSET      : 1.69135
#BEAMKV      : 15
#SIGNALTYPE  : EDS
#ELEVANGLE   : 35
#AZIMANGLE   : 0
#LIVETIME    : 239.904
#REALTIME    : 261.03
#PROBECUR    : 1.21822
#TAUWIND     : 0
#TDEADLYR    : 0
#TACTLYR     : 0.045
#TALWIND     : 0.025
#CHOFFSET    : 0.0
#XLABEL      : Energy (eV)
#YLABEL      : Counts
#XPOSITION   : 4.51383
#YPOSITION   : 15.42983
#ZPOSITION   : 37.36299
#EDSDET      : SD
##SPECIMEN   : GMIIIA K1053[1][all]
##D2STDCMP   : K1053,(O:16.13),(F:0.39),(Si:9.35),(Cl:0.64),(Br:1.09),(I:1.37),(Pb:71.02)
##DET_HASH   : 12273538-fd48-a23f-0a19-f1e6fa85caef
##CALIB_HASH : 6abaa72c-aa41-8738-0be9-f592914732f3
##WORKING    : 15.0 mm
##DET_NAME   : EDAX All
##DET_MODE   : MediumLE
#SPECTRUM    :
30,
751,
14347,
8532,
28122,
10231,
8311,
8822,
9203,
10140,
10796,
13195,
34303,
29998,
8651,
8627,
17481,
132081,
22278,
13478,
5379,
5598,
6808,
5202,
4856,
4885,
4844,
4658,
5922,
4519,
4979,
4484,
4565,
4259,
4211,
3991,
3848,
3738,
3609,
3437,
3454,
3300,
3283,
3223,
3073,
3086,
2924,
2832,
2704,
2645,
2640,
2519,
2370,
2476,
2279,
2220,
2155,
2182,
2057,
2073,
1911,
1880,
1813,
1739,
1659,
1612,
1615,
1573,
1473,
1428,
1347,
1306,
1204,
1121,
1333,
2459,
1718,
1001,
901,
882,
857,
830,
764,
784,
735,
673,
653,
584,
592,
524,
738,
502,
396,
413,
334,
308,
260,
248,
248,
212,
181,
178,
143,
108,
65,
49,
35,
11,
8,
5,
5,
4,
6,
4,
2,
2,
0,
3,
3,
2,
0,
3,
0,
2,
3,
3,
1,
3,
1,
1,
0,
0,
0,
2,
4,
1,
0,
3,
0,
2,
0,
0,
0,
2,
0,
1,
0,
0,
0,
1,
0,
0,
1,
1,
1,
0,
0,
0,
2,
0,
0,
0,
0,
0,
1,
0,
0,
0,
0,
0,
0,
0,
0,
0,
0,
0,
0,
0,
0,
0,
0,
0,
0,
0,
0,
0,
0,
0,
0,
0,
0,
0,
0,
0,
0,
0,
0,
0,
0,
0,
0,
0,
0,
0,
0,
0,
0,
0,
0,
0,
0,
0,
0,
0,
0,
0,
0,
0,
0,
0,
0,
0,
0,
0,
0,
0,
0,
0,
0,
0,
0,
0,
0,
0,
0,
0,
0,
0,
0,
0,
0,
0,
0,
0,
0,
0,
0,
0,
0,
0,
0,
0,
0,
0,
0,
0,
0,
0,
0,
0,
0,
0,
0,
0,
0,
0,
0,
0,
0,
0,
0,
0,
0,
0,
0,
0,
0,
0,
0,
0,
0,
0,
0,
0,
0,
0,
0,
0,
0,
0,
0,
0,
0,
0,
#ENDOFDATA   :

File: GMIIIA K1053[2][4].msa
#FORMAT      : EMSA/MAS Spectral Data File
#VERSION     : 1.0
#TITLE       : GMIIIA K1053[2][all]
#DATE        : 22-SEP-2025
#TIME        : 21:12
#OWNER       : Unknown
#NPOINTS     : 4096
#NCOLUMNS    : 1
#XUNITS      : eV
#YUNITS      : counts
#DATATYPE    : Y
#XPERCHAN    : 9.99778
#OFFSET      : 1.69135
#BEAMKV      : 15
#SIGNALTYPE  : EDS
#ELEVANGLE   : 35
#AZIMANGLE   : 0
#LIVETIME    : 239.916
#REALTIME    : 261.041
#PROBECUR    : 1.21822
#TAUWIND     : 0
#TDEADLYR    : 0
#TACTLYR     : 0.045
#TALWIND     : 0.025
#CHOFFSET    : 0.0
#XLABEL      : Energy (eV)
#YLABEL      : Counts
#XPOSITION   : 4.4924
#YPOSITION   : 15.46414
#ZPOSITION   : 37.36299
#EDSDET      : SD
##SPECIMEN   : GMIIIA K1053[2][all]
##D2STDCMP   : K1053,(O:16.13),(F:0.39),(Si:9.35),(Cl:0.64),(Br:1.09),(I:1.37),(Pb:71.02)
##DET_HASH   : 12273538-fd48-a23f-0a19-f1e6fa85caef
##CALIB_HASH : 6abaa72c-aa41-8738-0be9-f592914732f3
##WORKING    : 15.0 mm
##DET_NAME   : EDAX All
##DET_MODE   : MediumLE
#SPECTRUM    :
22,
740,
14408,
8493,
28493,
10426,
8291,
8791,
9234,
9984,
10713,
13153,
34104,
30137,
8760,
8813,
17499,
132740,
22406,
13396,
5307,
5662,
6825,
5304,
4867,
5007,
4666,
4600,
5851,
4467,
4882,
4543,
4644,
4158,
4283,
3955,
3906,
3609,
3569,
3402,
3434,
3373,
3341,
3128,
3148,
3052,
3029,
2862,
2730,
2691,
2648,
2452,
2466,
2412,
2293,
2213,
2225,
2163,
2043,
2039,
1933,
1787,
1770,
1705,
1603,
1673,
1628,
1543,
1460,
1401,
1374,
1302,
1269,
1221,
1216,
2379,
1626,
985,
949,
890,
933,
758,
750,
697,
710,
677,
615,
641,
530,
585,
753,
485,
404,
387,
357,
309,
303,
235,
192,
193,
200,
158,
124,
103,
75,
40,
45,
12,
6,
6,
6,
7,
5,
1,
9,
2,
3,
1,
2,
2,
2,
1,
1,
0,
2,
1,
0,
2,
2,
1,
0,
1,
2,
1,
2,
3,
0,
3,
0,
0,
0,
0,
0,
2,
0,
0,
0,
0,
1,
0,
0,
1,
0,
0,
0,
0,
0,
0,
0,
0,
0,
0,
0,
0,
0,
0,
0,
1,
0,
0,
1,
0,
0,
0,
0,
0,
0,
0,
0,
0,
0,
0,
0,
1,
0,
0,
1,
0,
0,
0,
0,
0,
0,
0,
0,
0,
0,
0,
0,
0,
0,
0,
0,
0,
0,
0,
0,
0,
0,
0,
0,
0,
0,
0,
0,
0,
0,
0,
0,
0,
0,
0,
0,
0,
0,
0,
0,
0,
0,
0,
0,
0,
0,
0,
0,
0,
0,
0,
0,
0,
0,
0,
0,
0,
0,
0,
0,
0,
0,
0,
0,
0,
0,
0,
0,
0,
0,
0,
0,
0,
0,
0,
0,
0,
0,
0,
0,
0,
0,
0,
0,
0,
0,
0,
0,
0,
0,
0,
0,
0,
0,
0,
0,
0,
0,
0,
0,
0,
0,
0,
0,
0,
0,
0,
#ENDOFDATA   :

File: GMIIIA K1053[3][4].msa
#FORMAT      : EMSA/MAS Spectral Data File
#VERSION     : 1.0
#TITLE       : GMIIIA K1053[3][all]
#DATE        : 22-SEP-2025
#TIME        : 21:13
#OWNER       : Unknown
#NPOINTS     : 4096
#NCOLUMNS    : 1
#XUNITS      : eV
#YUNITS      : counts
#DATATYPE    : Y
#XPERCHAN    : 9.99778
#OFFSET      : 1.69135
#BEAMKV      : 15
#SIGNALTYPE  : EDS
#ELEVANGLE   : 35
#AZIMANGLE   : 0
#LIVETIME    : 239.904
#REALTIME    : 261.037
#PROBECUR    : 1.21822
#TAUWIND     : 0
#TDEADLYR    : 0
#TACTLYR     : 0.045
#TALWIND     : 0.025
#CHOFFSET    : 0.0
#XLABEL      : Energy (eV)
#YLABEL      : Counts
#XPOSITION   : 4.48796
#YPOSITION   : 15.45677
#ZPOSITION   : 37.36299
#EDSDET      : SD
##SPECIMEN   : GMIIIA K1053[3][all]
##D2STDCMP   : K1053,(O:16.13),(F:0.39),(Si:9.35),(Cl:0.64),(Br:1.09),(I:1.37),(Pb:71.02)
##DET_HASH   : 12273538-fd48-a23f-0a19-f1e6fa85caef
##CALIB_HASH : 6abaa72c-aa41-8738-0be9-f592914732f3
##WORKING    : 15.0 mm
##DET_NAME   : EDAX All
##DET_MODE   : MediumLE
#SPECTRUM    :
23,
754,
14589,
8450,
28194,
10466,
8203,
8839,
9216,
10089,
10624,
13273,
34205,
29990,
8551,
8721,
17468,
132250,
22296,
13284,
5349,
5648,
6888,
5288,
4861,
4988,
4626,
4642,
5848,
4602,
5076,
4478,
4435,
4233,
4061,
4082,
3930,
3722,
3622,
3551,
3470,
3384,
3258,
3200,
3090,
2913,
3011,
2846,
2825,
2678,
2629,
2498,
2455,
2415,
2299,
2235,
2089,
2036,
1994,
1993,
1922,
1834,
1788,
1731,
1685,
1676,
1601,
1487,
1440,
1429,
1330,
1349,
1216,
1191,
1308,
2443,
1618,
978,
951,
905,
844,
824,
782,
760,
715,
640,
614,
606,
563,
629,
710,
495,
403,
401,
343,
332,
260,
252,
230,
217,
146,
141,
127,
120,
66,
57,
30,
9,
3,
6,
7,
4,
5,
3,
4,
4,
2,
3,
1,
3,
1,
1,
3,
1,
2,
4,
1,
1,
1,
1,
3,
3,
1,
0,
1,
1,
0,
1,
1,
3,
0,
0,
2,
1,
1,
1,
0,
1,
1,
0,
0,
0,
0,
2,
0,
0,
0,
1,
1,
0,
0,
0,
1,
0,
0,
0,
0,
0,
0,
0,
0,
0,
0,
0,
0,
1,
0,
0,
0,
0,
1,
0,
0,
0,
0,
0,
0,
0,
0,
1,
0,
0,
0,
0,
0,
0,
0,
0,
0,
0,
0,
0,
0,
0,
0,
0,
0,
0,
0,
0,
0,
0,
0,
0,
0,
0,
0,
0,
0,
0,
0,
0,
0,
0,
0,
0,
0,
0,
0,
0,
0,
0,
0,
0,
0,
0,
0,
0,
0,
0,
0,
0,
0,
0,
0,
0,
0,
0,
0,
0,
0,
0,
0,
0,
0,
0,
0,
0,
0,
0,
0,
0,
0,
0,
0,
0,
0,
0,
0,
0,
0,
0,
0,
0,
0,
0,
0,
0,
0,
0,
0,
0,
0,
0,
0,
0,
0,
0,
0,
0,
0,
0,
0,
0,
#ENDOFDATA   :

File: GMIIIA K1053[4][4].msa
#FORMAT      : EMSA/MAS Spectral Data File
#VERSION     : 1.0
#TITLE       : GMIIIA K1053[4][all]
#DATE        : 22-SEP-2025
#TIME        : 21:15
#OWNER       : Unknown
#NPOINTS     : 4096
#NCOLUMNS    : 1
#XUNITS      : eV
#YUNITS      : counts
#DATATYPE    : Y
#XPERCHAN    : 9.99778
#OFFSET      : 1.69135
#BEAMKV      : 15
#SIGNALTYPE  : EDS
#ELEVANGLE   : 35
#AZIMANGLE   : 0
#LIVETIME    : 239.909
#REALTIME    : 261.028
#PROBECUR    : 1.21822
#TAUWIND     : 0
#TDEADLYR    : 0
#TACTLYR     : 0.045
#TALWIND     : 0.025
#CHOFFSET    : 0.0
#XLABEL      : Energy (eV)
#YLABEL      : Counts
#XPOSITION   : 4.54539
#YPOSITION   : 15.4409
#ZPOSITION   : 37.36299
#EDSDET      : SD
##SPECIMEN   : GMIIIA K1053[4][all]
##D2STDCMP   : K1053,(O:16.13),(F:0.39),(Si:9.35),(Cl:0.64),(Br:1.09),(I:1.37),(Pb:71.02)
##DET_HASH   : 12273538-fd48-a23f-0a19-f1e6fa85caef
##CALIB_HASH : 6abaa72c-aa41-8738-0be9-f592914732f3
##WORKING    : 15.0 mm
##DET_NAME   : EDAX All
##DET_MODE   : MediumLE
#SPECTRUM    :
20,
800,
14340,
8446,
27906,
10564,
8221,
8806,
9211,
9836,
10774,
13097,
34214,
29681,
8699,
8713,
17436,
131594,
22481,
13280,
5472,
5777,
7051,
5123,
4880,
5147,
4677,
4691,
5899,
4579,
4973,
4491,
4590,
4190,
4125,
3996,
3758,
3676,
3546,
3562,
3433,
3391,
3173,
3021,
3084,
3009,
2942,
2830,
2732,
2649,
2661,
2571,
2385,
2395,
2346,
2238,
2166,
2150,
2083,
2040,
1863,
1842,
1777,
1685,
1725,
1644,
1551,
1519,
1543,
1337,
1291,
1286,
1317,
1215,
1258,
2421,
1705,
1035,
920,
910,
923,
793,
837,
748,
728,
647,
614,
627,
553,
577,
761,
476,
423,
399,
339,
296,
276,
237,
245,
238,
165,
148,
132,
103,
78,
52,
30,
10,
3,
10,
4,
0,
4,
2,
3,
4,
5,
5,
2,
1,
2,
2,
1,
2,
1,
1,
1,
0,
0,
0,
4,
2,
3,
1,
2,
0,
1,
1,
0,
0,
1,
1,
2,
0,
2,
0,
1,
0,
0,
0,
0,
1,
0,
0,
0,
1,
0,
0,
0,
0,
1,
0,
1,
0,
1,
0,
0,
0,
0,
0,
0,
0,
0,
0,
0,
0,
0,
0,
0,
0,
0,
0,
0,
0,
0,
0,
0,
1,
0,
0,
0,
1,
0,
0,
0,
0,
0,
0,
0,
0,
0,
0,
0,
0,
0,
0,
0,
0,
0,
0,
0,
0,
0,
0,
0,
0,
0,
0,
0,
0,
0,
0,
0,
0,
0,
0,
0,
0,
0,
0,
0,
0,
0,
0,
0,
0,
0,
0,
0,
0,
0,
0,
0,
0,
0,
0,
0,
0,
0,
0,
0,
0,
0,
0,
0,
0,
0,
0,
0,
0,
0,
0,
0,
0,
0,
0,
0,
0,
0,
0,
0,
0,
0,
0,
0,
0,
0,
0,
0,
0,
0,
0,
0,
0,
0,
0,
0,
0,
0,
0,
0,
0,
0,
0,
#ENDOFDATA   :

File: GMIIIA K1053[5][4].msa
#FORMAT      : EMSA/MAS Spectral Data File
#VERSION     : 1.0
#TITLE       : GMIIIA K1053[5][all]
#DATE        : 22-SEP-2025
#TIME        : 21:16
#OWNER       : Unknown
#NPOINTS     : 4096
#NCOLUMNS    : 1
#XUNITS      : eV
#YUNITS      : counts
#DATATYPE    : Y
#XPERCHAN    : 9.99778
#OFFSET      : 1.69135
#BEAMKV      : 15
#SIGNALTYPE  : EDS
#ELEVANGLE   : 35
#AZIMANGLE   : 0
#LIVETIME    : 239.897
#REALTIME    : 260.996
#PROBECUR    : 1.21822
#TAUWIND     : 0
#TDEADLYR    : 0
#TACTLYR     : 0.045
#TALWIND     : 0.025
#CHOFFSET    : 0.0
#XLABEL      : Energy (eV)
#YLABEL      : Counts
#XPOSITION   : 4.58185
#YPOSITION   : 15.44591
#ZPOSITION   : 37.36299
#EDSDET      : SD
##SPECIMEN   : GMIIIA K1053[5][all]
##D2STDCMP   : K1053,(O:16.13),(F:0.39),(Si:9.35),(Cl:0.64),(Br:1.09),(I:1.37),(Pb:71.02)
##DET_HASH   : 12273538-fd48-a23f-0a19-f1e6fa85caef
##CALIB_HASH : 6abaa72c-aa41-8738-0be9-f592914732f3
##WORKING    : 15.0 mm
##DET_NAME   : EDAX All
##DET_MODE   : MediumLE
#SPECTRUM    :
20,
769,
14386,
8434,
27995,
10290,
8251,
8697,
9344,
10069,
10507,
13316,
34287,
30091,
8610,
8721,
17649,
131819,
22339,
13322,
5375,
5758,
6948,
5168,
4731,
4978,
4696,
4661,
5753,
4543,
4939,
4475,
4568,
4118,
4086,
4102,
3819,
3744,
3644,
3533,
3377,
3362,
3296,
3171,
3111,
2958,
3008,
2866,
2727,
2646,
2643,
2520,
2544,
2348,
2314,
2207,
2215,
2052,
1997,
1956,
1869,
1879,
1776,
1714,
1691,
1672,
1578,
1413,
1448,
1393,
1359,
1240,
1226,
1249,
1311,
2478,
1661,
1033,
938,
890,
853,
812,
848,
728,
712,
721,
649,
612,
549,
531,
698,
499,
423,
397,
317,
302,
289,
268,
233,
208,
175,
146,
139,
104,
86,
46,
32,
8,
7,
4,
2,
5,
5,
2,
4,
2,
1,
2,
1,
1,
1,
3,
0,
2,
1,
4,
1,
5,
3,
0,
0,
1,
0,
0,
1,
2,
1,
2,
1,
3,
1,
0,
1,
1,
4,
1,
0,
1,
2,
0,
1,
0,
1,
1,
0,
0,
0,
0,
1,
0,
0,
1,
0,
0,
0,
0,
1,
0,
1,
0,
0,
1,
0,
0,
0,
0,
0,
0,
0,
0,
0,
0,
0,
0,
0,
0,
0,
0,
0,
0,
0,
0,
0,
0,
0,
0,
0,
0,
0,
0,
0,
0,
0,
0,
0,
0,
0,
0,
0,
0,
0,
0,
0,
0,
0,
0,
0,
0,
0,
0,
0,
0,
0,
0,
0,
0,
0,
0,
0,
0,
0,
0,
0,
0,
0,
0,
0,
0,
0,
0,
0,
0,
0,
0,
0,
0,
0,
0,
0,
0,
0,
0,
0,
0,
0,
0,
0,
0,
0,
0,
0,
0,
0,
0,
0,
0,
0,
0,
0,
0,
0,
0,
0,
0,
0,
0,
0,
0,
0,
0,
0,
0,
0,
0,
0,
0,
0,
0,
0,
0,
0,
0,
0,
0,
#ENDOFDATA   :

File: GMIIIA K1053[6][4].msa
#FORMAT      : EMSA/MAS Spectral Data File
#VERSION     : 1.0
#TITLE       : GMIIIA K1053[6][all]
#DATE        : 22-SEP-2025
#TIME        : 21:17
#OWNER       : Unknown
#NPOINTS     : 4096
#NCOLUMNS    : 1
#XUNITS      : eV
#YUNITS      : counts
#DATATYPE    : Y
#XPERCHAN    : 9.99778
#OFFSET      : 1.69135
#BEAMKV      : 15
#SIGNALTYPE  : EDS
#ELEVANGLE   : 35
#AZIMANGLE   : 0
#LIVETIME    : 239.963
#REALTIME    : 261.0916
#PROBECUR    : 1.21822
#TAUWIND     : 0
#TDEADLYR    : 0
#TACTLYR     : 0.045
#TALWIND     : 0.025
#CHOFFSET    : 0.0
#XLABEL      : Energy (eV)
#YLABEL      : Counts
#XPOSITION   : 4.53986
#YPOSITION   : 15.44457
#ZPOSITION   : 37.36299
#EDSDET      : SD
##SPECIMEN   : GMIIIA K1053[6][all]
##D2STDCMP   : K1053,(O:16.13),(F:0.39),(Si:9.35),(Cl:0.64),(Br:1.09),(I:1.37),(Pb:71.02)
##DET_HASH   : 12273538-fd48-a23f-0a19-f1e6fa85caef
##CALIB_HASH : 6abaa72c-aa41-8738-0be9-f592914732f3
##WORKING    : 15.0 mm
##DET_NAME   : EDAX All
##DET_MODE   : MediumLE
#SPECTRUM    :
29,
748,
14593,
8434,
27987,
10600,
8250,
8770,
9265,
9805,
10713,
13155,
34339,
29705,
8665,
8913,
17579,
132279,
22282,
13537,
5374,
5590,
6886,
5299,
4876,
4787,
4651,
4724,
5654,
4589,
4906,
4387,
4658,
4085,
4237,
4069,
3812,
3690,
3615,
3474,
3342,
3239,
3254,
3187,
3152,
3042,
3024,
2756,
2732,
2669,
2550,
2630,
2450,
2440,
2315,
2213,
2167,
2047,
1990,
2017,
1915,
1881,
1791,
1635,
1622,
1607,
1639,
1417,
1520,
1491,
1336,
1305,
1315,
1177,
1317,
2466,
1746,
1048,
947,
876,
910,
859,
778,
795,
713,
668,
673,
614,
545,
542,
709,
499,
414,
400,
324,
300,
293,
268,
256,
197,
180,
141,
118,
111,
71,
50,
35,
7,
3,
5,
5,
5,
1,
2,
1,
3,
3,
2,
1,
3,
1,
2,
0,
0,
1,
1,
0,
3,
0,
4,
3,
0,
0,
1,
2,
1,
0,
0,
2,
2,
0,
1,
0,
0,
1,
1,
0,
1,
1,
1,
0,
0,
0,
0,
1,
2,
1,
0,
0,
0,
0,
0,
0,
0,
1,
0,
0,
0,
0,
0,
0,
0,
0,
0,
1,
0,
0,
0,
0,
0,
0,
0,
0,
0,
0,
0,
0,
0,
0,
0,
0,
0,
0,
0,
0,
0,
0,
0,
0,
0,
0,
0,
0,
0,
0,
0,
0,
0,
0,
0,
0,
0,
0,
0,
0,
0,
0,
0,
0,
0,
0,
0,
0,
0,
0,
0,
0,
0,
0,
0,
0,
0,
0,
0,
0,
0,
0,
0,
0,
0,
0,
0,
0,
0,
0,
0,
0,
0,
0,
0,
0,
0,
0,
0,
0,
0,
0,
0,
0,
0,
0,
0,
0,
0,
0,
0,
0,
0,
0,
0,
0,
0,
0,
0,
0,
0,
0,
0,
0,
0,
0,
0,
0,
0,
0,
0,
0,
0,
0,
0,
0,
0,
0,
0,
#ENDOFDATA   :

File: GMIIIA K1053[7][4].msa
#FORMAT      : EMSA/MAS Spectral Data File
#VERSION     : 1.0
#TITLE       : GMIIIA K1053[7][all]
#DATE        : 22-SEP-2025
#TIME        : 21:18
#OWNER       : Unknown
#NPOINTS     : 4096
#NCOLUMNS    : 1
#XUNITS      : eV
#YUNITS      : counts
#DATATYPE    : Y
#XPERCHAN    : 9.99778
#OFFSET      : 1.69135
#BEAMKV      : 15
#SIGNALTYPE  : EDS
#ELEVANGLE   : 35
#AZIMANGLE   : 0
#LIVETIME    : 239.907
#REALTIME    : 261.033
#PROBECUR    : 1.21822
#TAUWIND     : 0
#TDEADLYR    : 0
#TACTLYR     : 0.045
#TALWIND     : 0.025
#CHOFFSET    : 0.0
#XLABEL      : Energy (eV)
#YLABEL      : Counts
#XPOSITION   : 4.56159
#YPOSITION   : 15.41048
#ZPOSITION   : 37.36299
#EDSDET      : SD
##SPECIMEN   : GMIIIA K1053[7][all]
##D2STDCMP   : K1053,(O:16.13),(F:0.39),(Si:9.35),(Cl:0.64),(Br:1.09),(I:1.37),(Pb:71.02)
##DET_HASH   : 12273538-fd48-a23f-0a19-f1e6fa85caef
##CALIB_HASH : 6abaa72c-aa41-8738-0be9-f592914732f3
##WORKING    : 15.0 mm
##DET_NAME   : EDAX All
##DET_MODE   : MediumLE
#SPECTRUM    :
18,
743,
14495,
8389,
28100,
10243,
8248,
8724,
9193,
9983,
10660,
13150,
34386,
30255,
8581,
8761,
17582,
132083,
22411,
13195,
5383,
5598,
7007,
5154,
4748,
4835,
4552,
4633,
5876,
4558,
5050,
4382,
4654,
4179,
4184,
4140,
3855,
3727,
3635,
3595,
3336,
3219,
3281,
3170,
3188,
2950,
3042,
2857,
2685,
2698,
2644,
2492,
2385,
2484,
2315,
2223,
2151,
2143,
1998,
1965,
1921,
1920,
1779,
1707,
1706,
1632,
1635,
1504,
1407,
1379,
1281,
1305,
1217,
1188,
1310,
2475,
1698,
1006,
974,
951,
848,
837,
806,
739,
676,
658,
646,
575,
511,
566,
702,
512,
425,
403,
351,
284,
311,
287,
231,
190,
193,
145,
111,
104,
75,
65,
24,
9,
5,
3,
6,
3,
3,
4,
2,
3,
3,
1,
4,
0,
0,
1,
2,
4,
2,
1,
3,
1,
4,
3,
0,
1,
1,
1,
0,
2,
0,
1,
2,
1,
1,
2,
1,
0,
0,
0,
0,
0,
0,
0,
1,
0,
0,
1,
0,
0,
0,
0,
0,
0,
1,
0,
0,
0,
0,
0,
0,
0,
0,
0,
0,
0,
1,
0,
0,
0,
0,
0,
0,
0,
0,
0,
0,
0,
0,
0,
0,
0,
0,
0,
0,
0,
0,
0,
0,
0,
0,
0,
0,
0,
0,
0,
0,
0,
0,
0,
0,
0,
0,
0,
0,
0,
0,
0,
0,
0,
0,
0,
0,
0,
0,
0,
0,
0,
0,
0,
0,
0,
0,
0,
0,
0,
0,
0,
0,
0,
0,
0,
0,
0,
0,
0,
0,
0,
0,
0,
0,
0,
0,
0,
0,
0,
0,
0,
0,
0,
0,
0,
0,
0,
0,
0,
0,
0,
0,
0,
0,
0,
0,
0,
0,
0,
0,
0,
0,
0,
0,
0,
0,
0,
0,
0,
0,
0,
0,
0,
0,
0,
0,
0,
0,
0,
0,
0,
#ENDOFDATA   :

File: GMIIIA K1053[8][4].msa
#FORMAT      : EMSA/MAS Spectral Data File
#VERSION     : 1.0
#TITLE       : GMIIIA K1053[8][all]
#DATE        : 22-SEP-2025
#TIME        : 21:19
#OWNER       : Unknown
#NPOINTS     : 4096
#NCOLUMNS    : 1
#XUNITS      : eV
#YUNITS      : counts
#DATATYPE    : Y
#XPERCHAN    : 9.99778
#OFFSET      : 1.69135
#BEAMKV      : 15
#SIGNALTYPE  : EDS
#ELEVANGLE   : 35
#AZIMANGLE   : 0
#LIVETIME    : 239.765
#REALTIME    : 260.9096
#PROBECUR    : 1.21822
#TAUWIND     : 0
#TDEADLYR    : 0
#TACTLYR     : 0.045
#TALWIND     : 0.025
#CHOFFSET    : 0.0
#XLABEL      : Energy (eV)
#YLABEL      : Counts
#XPOSITION   : 4.53662
#YPOSITION   : 15.33644
#ZPOSITION   : 37.36299
#EDSDET      : SD
##SPECIMEN   : GMIIIA K1053[8][all]
##D2STDCMP   : K1053,(O:16.13),(F:0.39),(Si:9.35),(Cl:0.64),(Br:1.09),(I:1.37),(Pb:71.02)
##DET_HASH   : 12273538-fd48-a23f-0a19-f1e6fa85caef
##CALIB_HASH : 6abaa72c-aa41-8738-0be9-f592914732f3
##WORKING    : 15.0 mm
##DET_NAME   : EDAX All
##DET_MODE   : MediumLE
#SPECTRUM    :
31,
779,
14639,
8550,
28314,
10475,
8152,
8761,
9234,
9869,
10738,
13232,
34136,
29874,
8740,
8772,
17687,
131490,
21989,
13563,
5401,
5737,
6971,
5195,
4824,
4960,
4631,
4641,
5852,
4544,
5156,
4503,
4641,
4088,
4173,
3892,
3952,
3815,
3516,
3506,
3433,
3308,
3285,
3144,
3111,
3048,
3016,
2827,
2721,
2709,
2585,
2544,
2410,
2353,
2240,
2238,
2150,
2105,
2036,
1938,
1850,
1902,
1791,
1706,
1675,
1653,
1527,
1506,
1422,
1393,
1339,
1260,
1214,
1212,
1301,
2551,
1657,
1033,
945,
923,
908,
784,
784,
748,
713,
721,
609,
637,
585,
551,
758,
496,
406,
397,
348,
315,
280,
273,
230,
201,
192,
140,
123,
104,
78,
57,
28,
9,
5,
4,
6,
0,
0,
1,
2,
2,
2,
2,
0,
2,
5,
3,
3,
3,
1,
2,
1,
1,
1,
1,
2,
0,
0,
1,
2,
3,
2,
0,
1,
0,
1,
1,
0,
1,
1,
0,
0,
1,
0,
0,
0,
0,
1,
0,
0,
1,
0,
0,
0,
0,
1,
0,
0,
0,
0,
0,
1,
0,
0,
0,
0,
0,
0,
0,
0,
1,
0,
0,
0,
0,
1,
0,
1,
0,
0,
0,
0,
0,
0,
0,
0,
0,
0,
0,
0,
0,
0,
0,
0,
0,
0,
0,
0,
0,
0,
0,
0,
0,
0,
0,
0,
0,
0,
0,
0,
0,
0,
0,
0,
0,
0,
0,
0,
0,
0,
0,
0,
0,
0,
0,
0,
0,
0,
0,
0,
0,
0,
0,
0,
0,
0,
0,
0,
0,
0,
0,
0,
0,
0,
0,
0,
0,
0,
0,
0,
0,
0,
0,
0,
0,
0,
0,
0,
0,
0,
0,
0,
0,
0,
0,
0,
0,
0,
0,
0,
0,
0,
0,
0,
0,
0,
0,
0,
0,
0,
0,
0,
0,
0,
0,
0,
0,
0,
0,
#ENDOFDATA   :

File: GMIIIA K1070[0][4].msa
#FORMAT      : EMSA/MAS Spectral Data File
#VERSION     : 1.0
#TITLE       : GMIIIA K1070[0][all]
#DATE        : 22-SEP-2025
#TIME        : 21:00
#OWNER       : Unknown
#NPOINTS     : 4096
#NCOLUMNS    : 1
#XUNITS      : eV
#YUNITS      : counts
#DATATYPE    : Y
#XPERCHAN    : 9.99778
#OFFSET      : 1.69135
#BEAMKV      : 15
#SIGNALTYPE  : EDS
#ELEVANGLE   : 35
#AZIMANGLE   : 0
#LIVETIME    : 240.043
#REALTIME    : 256.224
#PROBECUR    : 1.21822
#TAUWIND     : 0
#TDEADLYR    : 0
#TACTLYR     : 0.045
#TALWIND     : 0.025
#CHOFFSET    : 0.0
#XLABEL      : Energy (eV)
#YLABEL      : Counts
#XPOSITION   : 2.35718
#YPOSITION   : 15.70945
#ZPOSITION   : 37.36299
#EDSDET      : SD
##SPECIMEN   : GMIIIA K1070[0][all]
##D2STDCMP   : K1070,(O:34.31),(Mg:7.54),(Si:18.7),(Ca:8.93),(Zn:10.04),(Ba:11.2),(Pb:9.28)
##DET_HASH   : 12273538-fd48-a23f-0a19-f1e6fa85caef
##CALIB_HASH : 6abaa72c-aa41-8738-0be9-f592914732f3
##WORKING    : 15.0 mm
##DET_NAME   : EDAX All
##DET_MODE   : MediumLE
#SPECTRUM    :
21,
272,
10381,
8499,
56443,
5054,
6616,
29251,
6664,
52597,
5190,
5899,
44023,
23042,
4214,
3966,
5105,
16455,
5279,
4279,
3390,
3345,
3431,
3010,
2945,
2976,
18276,
7489,
3546,
4851,
2382,
2801,
11609,
2150,
3727,
4335,
2166,
3191,
1769,
1935,
1957,
1699,
1512,
1475,
1398,
1354,
1277,
1236,
1136,
1089,
1116,
1050,
1035,
1025,
1021,
901,
880,
822,
774,
788,
739,
2133,
3093,
736,
632,
639,
610,
586,
942,
722,
533,
502,
465,
464,
444,
552,
446,
371,
363,
317,
313,
291,
271,
281,
230,
198,
219,
196,
185,
181,
196,
163,
162,
125,
113,
126,
97,
73,
80,
70,
53,
47,
24,
34,
13,
18,
10,
2,
1,
0,
1,
1,
0,
0,
0,
1,
0,
0,
1,
1,
0,
0,
1,
0,
0,
0,
0,
0,
2,
0,
0,
1,
1,
1,
0,
0,
0,
1,
0,
0,
0,
0,
0,
0,
0,
0,
0,
0,
0,
0,
0,
0,
0,
0,
0,
0,
0,
0,
0,
0,
0,
0,
0,
0,
0,
0,
0,
0,
0,
0,
0,
0,
0,
0,
0,
0,
0,
0,
0,
0,
0,
0,
0,
0,
0,
0,
0,
0,
0,
0,
0,
0,
0,
0,
0,
0,
0,
0,
0,
0,
0,
0,
0,
0,
0,
0,
0,
0,
0,
0,
0,
0,
0,
0,
0,
0,
0,
0,
0,
0,
0,
0,
0,
0,
0,
0,
0,
0,
0,
0,
0,
0,
0,
0,
0,
0,
0,
0,
0,
0,
0,
0,
0,
0,
0,
0,
0,
0,
0,
0,
0,
0,
0,
0,
0,
0,
0,
0,
0,
0,
0,
0,
0,
0,
0,
0,
0,
0,
0,
0,
0,
0,
0,
0,
0,
0,
0,
0,
0,
0,
0,
0,
0,
0,
0,
0,
0,
0,
0,
0,
0,
0,
0,
0,
#ENDOFDATA   :

File: GMIIIA K1070[1][4].msa
#FORMAT      : EMSA/MAS Spectral Data File
#VERSION     : 1.0
#TITLE       : GMIIIA K1070[1][all]
#DATE        : 22-SEP-2025
#TIME        : 21:01
#OWNER       : Unknown
#NPOINTS     : 4096
#NCOLUMNS    : 1
#XUNITS      : eV
#YUNITS      : counts
#DATATYPE    : Y
#XPERCHAN    : 9.99778
#OFFSET      : 1.69135
#BEAMKV      : 15
#SIGNALTYPE  : EDS
#ELEVANGLE   : 35
#AZIMANGLE   : 0
#LIVETIME    : 239.981
#REALTIME    : 256.1714
#PROBECUR    : 1.21822
#TAUWIND     : 0
#TDEADLYR    : 0
#TACTLYR     : 0.045
#TALWIND     : 0.025
#CHOFFSET    : 0.0
#XLABEL      : Energy (eV)
#YLABEL      : Counts
#XPOSITION   : 2.37638
#YPOSITION   : 15.64359
#ZPOSITION   : 37.36299
#EDSDET      : SD
##SPECIMEN   : GMIIIA K1070[1][all]
##D2STDCMP   : K1070,(O:34.31),(Mg:7.54),(Si:18.7),(Ca:8.93),(Zn:10.04),(Ba:11.2),(Pb:9.28)
##DET_HASH   : 12273538-fd48-a23f-0a19-f1e6fa85caef
##CALIB_HASH : 6abaa72c-aa41-8738-0be9-f592914732f3
##WORKING    : 15.0 mm
##DET_NAME   : EDAX All
##DET_MODE   : MediumLE
#SPECTRUM    :
24,
293,
10656,
8632,
57207,
5163,
6681,
29188,
6523,
53307,
5372,
5973,
43789,
23141,
4403,
4090,
5094,
16640,
5346,
4312,
3461,
3341,
3409,
2981,
2810,
3071,
18429,
7583,
3415,
4733,
2333,
2771,
11649,
2301,
3762,
4496,
2173,
3139,
1711,
1964,
1898,
1677,
1555,
1405,
1278,
1370,
1259,
1287,
1150,
1151,
1092,
1017,
1056,
1042,
952,
915,
875,
888,
873,
778,
811,
2114,
3114,
723,
658,
618,
630,
602,
884,
699,
527,
448,
462,
430,
431,
545,
433,
350,
342,
312,
296,
254,
277,
282,
221,
244,
218,
200,
188,
181,
184,
158,
144,
124,
109,
99,
101,
78,
59,
70,
53,
43,
42,
25,
25,
5,
11,
4,
2,
1,
0,
1,
1,
1,
0,
1,
0,
0,
0,
0,
0,
0,
1,
0,
0,
0,
0,
1,
1,
0,
0,
1,
0,
0,
0,
0,
0,
0,
0,
0,
0,
0,
0,
0,
0,
0,
0,
0,
0,
0,
0,
0,
0,
0,
0,
0,
0,
0,
0,
0,
0,
0,
0,
0,
0,
0,
0,
0,
0,
0,
0,
0,
0,
0,
0,
0,
0,
0,
0,
0,
0,
0,
0,
0,
0,
0,
0,
0,
0,
0,
0,
0,
0,
0,
0,
0,
0,
0,
0,
0,
0,
0,
0,
0,
0,
0,
0,
0,
0,
0,
0,
0,
0,
0,
0,
0,
0,
0,
0,
0,
0,
0,
0,
0,
0,
0,
0,
0,
0,
0,
0,
0,
0,
0,
0,
0,
0,
0,
0,
0,
0,
0,
0,
0,
0,
0,
0,
0,
0,
0,
0,
0,
0,
0,
0,
0,
0,
0,
0,
0,
0,
0,
0,
0,
0,
0,
0,
0,
0,
0,
0,
0,
0,
0,
0,
0,
0,
0,
0,
0,
0,
0,
0,
0,
0,
0,
0,
0,
0,
0,
0,
0,
0,
0,
#ENDOFDATA   :

File: GMIIIA K1070[2][4].msa
#FORMAT      : EMSA/MAS Spectral Data File
#VERSION     : 1.0
#TITLE       : GMIIIA K1070[2][all]
#DATE        : 22-SEP-2025
#TIME        : 21:02
#OWNER       : Unknown
#NPOINTS     : 4096
#NCOLUMNS    : 1
#XUNITS      : eV
#YUNITS      : counts
#DATATYPE    : Y
#XPERCHAN    : 9.99778
#OFFSET      : 1.69135
#BEAMKV      : 15
#SIGNALTYPE  : EDS
#ELEVANGLE   : 35
#AZIMANGLE   : 0
#LIVETIME    : 240.052
#REALTIME    : 256.252
#PROBECUR    : 1.21822
#TAUWIND     : 0
#TDEADLYR    : 0
#TACTLYR     : 0.045
#TALWIND     : 0.025
#CHOFFSET    : 0.0
#XLABEL      : Energy (eV)
#YLABEL      : Counts
#XPOSITION   : 2.28482
#YPOSITION   : 15.7112
#ZPOSITION   : 37.36299
#EDSDET      : SD
##SPECIMEN   : GMIIIA K1070[2][all]
##D2STDCMP   : K1070,(O:34.31),(Mg:7.54),(Si:18.7),(Ca:8.93),(Zn:10.04),(Ba:11.2),(Pb:9.28)
##DET_HASH   : 12273538-fd48-a23f-0a19-f1e6fa85caef
##CALIB_HASH : 6abaa72c-aa41-8738-0be9-f592914732f3
##WORKING    : 15.0 mm
##DET_NAME   : EDAX All
##DET_MODE   : MediumLE
#SPECTRUM    :
26,
290,
10581,
8794,
57246,
5016,
6559,
29315,
6556,
52727,
5419,
5963,
44132,
22977,
4345,
4001,
5341,
16385,
5218,
4298,
3355,
3230,
3403,
3000,
2957,
3070,
18608,
7557,
3513,
4716,
2305,
2897,
11614,
2143,
3590,
4502,
2225,
3177,
1684,
1906,
1823,
1657,
1620,
1459,
1374,
1359,
1279,
1201,
1160,
1157,
1144,
1048,
1021,
1011,
950,
945,
867,
834,
753,
824,
799,
2215,
3101,
730,
653,
666,
600,
552,
906,
725,
493,
469,
488,
489,
392,
463,
406,
350,
364,
350,
299,
306,
295,
261,
224,
214,
201,
195,
156,
167,
157,
141,
140,
112,
107,
104,
87,
76,
85,
60,
55,
47,
46,
31,
26,
18,
10,
5,
1,
1,
1,
1,
1,
1,
0,
0,
0,
0,
1,
0,
0,
0,
0,
1,
0,
0,
1,
0,
1,
0,
0,
0,
1,
0,
1,
0,
0,
0,
0,
0,
0,
0,
0,
0,
0,
0,
0,
0,
0,
0,
0,
0,
0,
0,
0,
0,
0,
0,
0,
0,
0,
0,
1,
0,
0,
0,
0,
0,
0,
0,
0,
0,
0,
0,
0,
0,
0,
0,
0,
0,
0,
0,
0,
0,
0,
0,
0,
0,
0,
0,
0,
0,
0,
0,
0,
0,
0,
0,
0,
0,
0,
0,
0,
0,
0,
0,
0,
0,
0,
0,
0,
0,
0,
0,
0,
0,
0,
0,
0,
0,
0,
0,
0,
0,
0,
0,
0,
0,
0,
0,
0,
0,
0,
0,
0,
0,
0,
0,
0,
0,
0,
0,
0,
0,
0,
0,
0,
0,
0,
0,
0,
0,
0,
0,
0,
0,
0,
0,
0,
0,
0,
0,
0,
0,
0,
0,
0,
0,
0,
0,
0,
0,
0,
0,
0,
0,
0,
0,
0,
0,
0,
0,
0,
0,
0,
0,
0,
0,
0,
0,
0,
0,
0,
0,
#ENDOFDATA   :