Folder: spex_quant/N132962/Quantification/15 keV/GMIIIA (part 5)

File: GMIIIA K252[2][4].msa
#FORMAT      : EMSA/MAS Spectral Data File
#VERSION     : 1.0
#TITLE       : GMIIIA K252[2][all]
#DATE        : 22-SEP-2025
#TIME        : 14:50
#OWNER       : Unknown
#NPOINTS     : 4096
#NCOLUMNS    : 1
#XUNITS      : eV
#YUNITS      : counts
#DATATYPE    : Y
#XPERCHAN    : 9.99778
#OFFSET      : 1.69135
#BEAMKV      : 15
#SIGNALTYPE  : EDS
#ELEVANGLE   : 35
#AZIMANGLE   : 0
#LIVETIME    : 239.9906
#REALTIME    : 257.13
#PROBECUR    : 1.21732
#TAUWIND     : 0
#TDEADLYR    : 0
#TACTLYR     : 0.045
#TALWIND     : 0.025
#CHOFFSET    : 0.0
#XLABEL      : Energy (eV)
#YLABEL      : Counts
#XPOSITION   : 4.68511
#YPOSITION   : 2.64043
#ZPOSITION   : 37.36299
#EDSDET      : SD
##SPECIMEN   : GMIIIA K252[2][all]
##D2STDCMP   : K252,(O:30.83),(Si:18.7),(Mn:3.16),(Co:3.93),(Cu:3.99),(Zn:8.03),(Ba:31.35)
##DET_HASH   : 12273538-fd48-a23f-0a19-f1e6fa85caef
##CALIB_HASH : 6abaa72c-aa41-8738-0be9-f592914732f3
##WORKING    : 15.0 mm
##DET_NAME   : EDAX All
##DET_MODE   : MediumLE
#SPECTRUM    :
21,
384,
9073,
12435,
78944,
8223,
9035,
26233,
5579,
5037,
5498,
6343,
42570,
21746,
4434,
4418,
4752,
4304,
4186,
4169,
4036,
3913,
3728,
3507,
3527,
3392,
3099,
3052,
3843,
3045,
2981,
4547,
31369,
2932,
7763,
10105,
3076,
6475,
2068,
2742,
2647,
2346,
5912,
2054,
1652,
1576,
1981,
1649,
1368,
2956,
2412,
1274,
1190,
1207,
1361,
1303,
1076,
2255,
1753,
861,
902,
2127,
2829,
991,
923,
758,
719,
721,
1003,
772,
613,
635,
573,
584,
512,
499,
458,
431,
461,
376,
399,
359,
317,
276,
319,
252,
271,
225,
209,
196,
186,
179,
157,
164,
139,
116,
98,
98,
103,
74,
59,
57,
62,
27,
31,
27,
7,
6,
2,
0,
3,
1,
1,
0,
2,
3,
2,
0,
0,
0,
1,
0,
1,
1,
0,
0,
0,
0,
0,
1,
0,
2,
0,
0,
1,
0,
0,
0,
0,
0,
0,
0,
0,
0,
0,
1,
0,
0,
0,
0,
0,
0,
0,
0,
0,
0,
0,
0,
0,
0,
0,
0,
0,
0,
0,
0,
0,
0,
0,
0,
0,
0,
0,
0,
0,
0,
0,
0,
0,
0,
0,
0,
0,
0,
0,
0,
0,
0,
0,
0,
0,
0,
0,
0,
0,
0,
0,
0,
0,
0,
0,
0,
0,
0,
0,
0,
0,
0,
0,
0,
0,
0,
0,
0,
0,
0,
0,
0,
0,
0,
0,
0,
0,
0,
0,
0,
0,
0,
0,
0,
0,
0,
0,
0,
0,
0,
0,
0,
0,
0,
0,
0,
0,
0,
0,
0,
0,
0,
0,
0,
0,
0,
0,
0,
0,
0,
0,
0,
0,
0,
0,
0,
0,
0,
0,
0,
0,
0,
0,
0,
0,
0,
0,
0,
0,
0,
0,
0,
0,
0,
0,
0,
0,
0,
0,
0,
0,
0,
0,
0,
0,
0,
0,
0,
#ENDOFDATA   :

File: GMIIIA K252[3][4].msa
#FORMAT      : EMSA/MAS Spectral Data File
#VERSION     : 1.0
#TITLE       : GMIIIA K252[3][all]
#DATE        : 22-SEP-2025
#TIME        : 14:51
#OWNER       : Unknown
#NPOINTS     : 4096
#NCOLUMNS    : 1
#XUNITS      : eV
#YUNITS      : counts
#DATATYPE    : Y
#XPERCHAN    : 9.99778
#OFFSET      : 1.69135
#BEAMKV      : 15
#SIGNALTYPE  : EDS
#ELEVANGLE   : 35
#AZIMANGLE   : 0
#LIVETIME    : 239.994
#REALTIME    : 257.131
#PROBECUR    : 1.21732
#TAUWIND     : 0
#TDEADLYR    : 0
#TACTLYR     : 0.045
#TALWIND     : 0.025
#CHOFFSET    : 0.0
#XLABEL      : Energy (eV)
#YLABEL      : Counts
#XPOSITION   : 4.70937
#YPOSITION   : 2.67439
#ZPOSITION   : 37.36299
#EDSDET      : SD
##SPECIMEN   : GMIIIA K252[3][all]
##D2STDCMP   : K252,(O:30.83),(Si:18.7),(Mn:3.16),(Co:3.93),(Cu:3.99),(Zn:8.03),(Ba:31.35)
##DET_HASH   : 12273538-fd48-a23f-0a19-f1e6fa85caef
##CALIB_HASH : 6abaa72c-aa41-8738-0be9-f592914732f3
##WORKING    : 15.0 mm
##DET_NAME   : EDAX All
##DET_MODE   : MediumLE
#SPECTRUM    :
22,
406,
9221,
12185,
78724,
8295,
8882,
25982,
5711,
5034,
5338,
6333,
43036,
21825,
4288,
4478,
4794,
4494,
4169,
4343,
3957,
3768,
3800,
3608,
3513,
3454,
3333,
3140,
3857,
3110,
2868,
4641,
30909,
2918,
7565,
10155,
3102,
6595,
2186,
2845,
2638,
2332,
5925,
2005,
1632,
1576,
1882,
1564,
1460,
3039,
2584,
1254,
1269,
1232,
1298,
1266,
1071,
2247,
1736,
962,
931,
2154,
2810,
941,
915,
790,
691,
672,
994,
834,
583,
618,
556,
529,
489,
472,
463,
468,
423,
407,
334,
393,
331,
316,
276,
281,
263,
234,
200,
239,
195,
181,
181,
150,
131,
120,
108,
101,
98,
78,
77,
57,
52,
42,
28,
30,
9,
6,
0,
1,
2,
1,
1,
2,
1,
1,
1,
0,
1,
2,
0,
1,
0,
0,
1,
0,
0,
0,
0,
0,
0,
0,
2,
1,
0,
0,
1,
0,
1,
0,
0,
0,
0,
0,
0,
1,
0,
0,
0,
0,
0,
0,
2,
0,
0,
0,
0,
0,
0,
0,
0,
0,
0,
0,
0,
0,
0,
0,
0,
1,
0,
0,
0,
0,
0,
0,
0,
0,
0,
0,
0,
0,
0,
0,
0,
0,
0,
0,
0,
0,
0,
0,
0,
0,
0,
0,
0,
0,
0,
0,
0,
0,
0,
0,
0,
0,
0,
0,
0,
0,
0,
0,
0,
0,
0,
0,
0,
0,
0,
0,
0,
0,
0,
0,
0,
0,
0,
0,
0,
0,
0,
0,
0,
0,
0,
0,
0,
0,
0,
0,
0,
0,
0,
0,
0,
0,
0,
0,
0,
0,
0,
0,
0,
0,
0,
0,
0,
0,
0,
0,
0,
0,
0,
0,
0,
0,
0,
0,
0,
0,
0,
0,
0,
0,
0,
0,
0,
0,
0,
0,
0,
0,
0,
0,
0,
0,
0,
0,
0,
0,
0,
0,
0,
0,
#ENDOFDATA   :

File: GMIIIA K252[4][4].msa
#FORMAT      : EMSA/MAS Spectral Data File
#VERSION     : 1.0
#TITLE       : GMIIIA K252[4][all]
#DATE        : 22-SEP-2025
#TIME        : 14:52
#OWNER       : Unknown
#NPOINTS     : 4096
#NCOLUMNS    : 1
#XUNITS      : eV
#YUNITS      : counts
#DATATYPE    : Y
#XPERCHAN    : 9.99778
#OFFSET      : 1.69135
#BEAMKV      : 15
#SIGNALTYPE  : EDS
#ELEVANGLE   : 35
#AZIMANGLE   : 0
#LIVETIME    : 239.945
#REALTIME    : 257.0761
#PROBECUR    : 1.21732
#TAUWIND     : 0
#TDEADLYR    : 0
#TACTLYR     : 0.045
#TALWIND     : 0.025
#CHOFFSET    : 0.0
#XLABEL      : Energy (eV)
#YLABEL      : Counts
#XPOSITION   : 4.71999
#YPOSITION   : 2.58815
#ZPOSITION   : 37.36299
#EDSDET      : SD
##SPECIMEN   : GMIIIA K252[4][all]
##D2STDCMP   : K252,(O:30.83),(Si:18.7),(Mn:3.16),(Co:3.93),(Cu:3.99),(Zn:8.03),(Ba:31.35)
##DET_HASH   : 12273538-fd48-a23f-0a19-f1e6fa85caef
##CALIB_HASH : 6abaa72c-aa41-8738-0be9-f592914732f3
##WORKING    : 15.0 mm
##DET_NAME   : EDAX All
##DET_MODE   : MediumLE
#SPECTRUM    :
29,
380,
9176,
12443,
79100,
8389,
8770,
26082,
5585,
4950,
5483,
6270,
42562,
21756,
4325,
4330,
4737,
4310,
4324,
4225,
4129,
3814,
3873,
3542,
3537,
3352,
3236,
3074,
3764,
3102,
2818,
4754,
31035,
2930,
7614,
10043,
3192,
6633,
2043,
2803,
2733,
2289,
6031,
2102,
1606,
1548,
1908,
1607,
1415,
2957,
2451,
1242,
1267,
1212,
1360,
1303,
1073,
2189,
1721,
986,
912,
2018,
2785,
978,
941,
742,
754,
699,
988,
791,
633,
579,
566,
530,
490,
485,
493,
446,
425,
416,
373,
367,
327,
310,
285,
289,
276,
232,
248,
212,
203,
171,
174,
167,
148,
118,
109,
90,
82,
73,
68,
51,
47,
37,
23,
17,
6,
7,
3,
2,
0,
1,
2,
1,
0,
1,
3,
0,
0,
0,
1,
1,
0,
1,
0,
0,
0,
0,
1,
0,
0,
0,
0,
1,
0,
0,
0,
2,
0,
0,
1,
0,
0,
0,
0,
0,
0,
0,
0,
0,
0,
0,
0,
0,
0,
0,
0,
0,
0,
0,
0,
0,
0,
0,
0,
0,
0,
0,
0,
0,
0,
0,
0,
0,
0,
0,
0,
0,
0,
0,
0,
0,
0,
0,
1,
0,
0,
0,
0,
0,
0,
0,
0,
0,
0,
0,
0,
0,
0,
0,
0,
0,
0,
0,
0,
0,
0,
0,
0,
0,
0,
0,
0,
0,
0,
0,
0,
0,
0,
0,
0,
0,
0,
0,
0,
0,
0,
0,
0,
0,
0,
0,
0,
0,
0,
0,
0,
0,
0,
0,
0,
0,
0,
0,
0,
0,
0,
0,
0,
0,
0,
0,
0,
0,
0,
0,
0,
0,
0,
0,
0,
0,
0,
0,
0,
0,
0,
0,
0,
0,
0,
0,
0,
0,
0,
0,
0,
0,
0,
0,
0,
0,
0,
0,
0,
0,
0,
0,
0,
0,
0,
0,
0,
0,
#ENDOFDATA   :

File: GMIIIA K252[5][4].msa
#FORMAT      : EMSA/MAS Spectral Data File
#VERSION     : 1.0
#TITLE       : GMIIIA K252[5][all]
#DATE        : 22-SEP-2025
#TIME        : 14:53
#OWNER       : Unknown
#NPOINTS     : 4096
#NCOLUMNS    : 1
#XUNITS      : eV
#YUNITS      : counts
#DATATYPE    : Y
#XPERCHAN    : 9.99778
#OFFSET      : 1.69135
#BEAMKV      : 15
#SIGNALTYPE  : EDS
#ELEVANGLE   : 35
#AZIMANGLE   : 0
#LIVETIME    : 240.007
#REALTIME    : 257.135
#PROBECUR    : 1.21732
#TAUWIND     : 0
#TDEADLYR    : 0
#TACTLYR     : 0.045
#TALWIND     : 0.025
#CHOFFSET    : 0.0
#XLABEL      : Energy (eV)
#YLABEL      : Counts
#XPOSITION   : 4.60999
#YPOSITION   : 2.59049
#ZPOSITION   : 37.36299
#EDSDET      : SD
##SPECIMEN   : GMIIIA K252[5][all]
##D2STDCMP   : K252,(O:30.83),(Si:18.7),(Mn:3.16),(Co:3.93),(Cu:3.99),(Zn:8.03),(Ba:31.35)
##DET_HASH   : 12273538-fd48-a23f-0a19-f1e6fa85caef
##CALIB_HASH : 6abaa72c-aa41-8738-0be9-f592914732f3
##WORKING    : 15.0 mm
##DET_NAME   : EDAX All
##DET_MODE   : MediumLE
#SPECTRUM    :
20,
372,
9449,
12317,
79397,
8237,
8673,
26213,
5453,
5086,
5423,
6254,
42803,
22102,
4345,
4392,
4801,
4459,
4121,
4312,
4021,
3907,
3889,
3546,
3310,
3420,
3235,
3073,
3745,
3042,
2772,
4564,
31314,
2968,
7577,
9847,
3188,
6657,
2088,
2794,
2700,
2269,
5825,
2099,
1538,
1540,
1947,
1602,
1370,
3002,
2466,
1238,
1210,
1233,
1276,
1364,
1028,
2169,
1795,
1014,
937,
2122,
2858,
992,
916,
795,
776,
676,
965,
766,
617,
576,
549,
493,
536,
447,
494,
444,
416,
389,
350,
291,
352,
333,
324,
256,
274,
252,
251,
243,
211,
172,
157,
153,
159,
126,
105,
112,
90,
94,
70,
49,
43,
31,
28,
18,
13,
2,
1,
0,
1,
1,
1,
4,
1,
0,
2,
0,
0,
0,
0,
0,
1,
1,
0,
1,
1,
0,
0,
0,
0,
0,
0,
1,
0,
1,
0,
0,
0,
0,
0,
0,
0,
0,
0,
0,
0,
0,
1,
0,
0,
0,
0,
0,
0,
0,
0,
0,
0,
0,
0,
0,
0,
0,
0,
1,
0,
0,
0,
0,
0,
0,
0,
0,
0,
0,
0,
1,
0,
0,
0,
0,
0,
0,
0,
0,
0,
0,
0,
0,
0,
0,
0,
0,
0,
0,
0,
0,
0,
0,
0,
0,
0,
0,
0,
0,
0,
0,
0,
0,
0,
0,
0,
0,
0,
0,
0,
0,
0,
0,
0,
0,
0,
0,
0,
0,
0,
0,
0,
0,
0,
0,
0,
0,
0,
0,
0,
0,
0,
0,
0,
0,
0,
0,
0,
0,
0,
0,
0,
0,
0,
0,
0,
0,
0,
0,
0,
0,
0,
0,
0,
0,
0,
0,
0,
0,
0,
0,
0,
0,
0,
0,
0,
0,
0,
0,
0,
0,
0,
0,
0,
0,
0,
0,
0,
0,
0,
0,
0,
0,
0,
0,
0,
0,
#ENDOFDATA   :

File: GMIIIA K252[6][4].msa
#FORMAT      : EMSA/MAS Spectral Data File
#VERSION     : 1.0
#TITLE       : GMIIIA K252[6][all]
#DATE        : 22-SEP-2025
#TIME        : 14:54
#OWNER       : Unknown
#NPOINTS     : 4096
#NCOLUMNS    : 1
#XUNITS      : eV
#YUNITS      : counts
#DATATYPE    : Y
#XPERCHAN    : 9.99778
#OFFSET      : 1.69135
#BEAMKV      : 15
#SIGNALTYPE  : EDS
#ELEVANGLE   : 35
#AZIMANGLE   : 0
#LIVETIME    : 239.946
#REALTIME    : 257.0694
#PROBECUR    : 1.21732
#TAUWIND     : 0
#TDEADLYR    : 0
#TACTLYR     : 0.045
#TALWIND     : 0.025
#CHOFFSET    : 0.0
#XLABEL      : Energy (eV)
#YLABEL      : Counts
#XPOSITION   : 4.71132
#YPOSITION   : 2.58129
#ZPOSITION   : 37.36299
#EDSDET      : SD
##SPECIMEN   : GMIIIA K252[6][all]
##D2STDCMP   : K252,(O:30.83),(Si:18.7),(Mn:3.16),(Co:3.93),(Cu:3.99),(Zn:8.03),(Ba:31.35)
##DET_HASH   : 12273538-fd48-a23f-0a19-f1e6fa85caef
##CALIB_HASH : 6abaa72c-aa41-8738-0be9-f592914732f3
##WORKING    : 15.0 mm
##DET_NAME   : EDAX All
##DET_MODE   : MediumLE
#SPECTRUM    :
23,
355,
9078,
12456,
79461,
8231,
8878,
26274,
5431,
5012,
5429,
6310,
42620,
22088,
4261,
4338,
4770,
4327,
4216,
4218,
4052,
3847,
3780,
3632,
3320,
3376,
3265,
3037,
3713,
3084,
2871,
4511,
30906,
2930,
7499,
10088,
3215,
6718,
2181,
2761,
2640,
2350,
5823,
2061,
1574,
1568,
1887,
1704,
1450,
2944,
2474,
1251,
1213,
1238,
1309,
1348,
1094,
2206,
1802,
965,
950,
2074,
2821,
986,
911,
762,
747,
674,
946,
793,
600,
574,
555,
527,
502,
517,
496,
467,
389,
384,
388,
322,
355,
309,
306,
251,
269,
241,
239,
217,
212,
181,
166,
156,
131,
140,
126,
90,
88,
70,
76,
57,
52,
39,
29,
21,
12,
5,
0,
3,
1,
1,
2,
1,
1,
0,
1,
1,
1,
1,
0,
0,
3,
0,
0,
0,
1,
0,
0,
1,
0,
0,
1,
0,
0,
0,
0,
0,
0,
0,
0,
0,
0,
1,
0,
0,
1,
0,
0,
0,
0,
0,
1,
0,
0,
0,
0,
0,
0,
0,
1,
0,
0,
0,
0,
0,
0,
0,
0,
0,
0,
0,
0,
0,
0,
0,
0,
0,
0,
0,
0,
0,
0,
0,
0,
0,
0,
0,
0,
0,
0,
0,
0,
1,
0,
0,
0,
0,
0,
0,
0,
0,
0,
0,
0,
0,
0,
0,
0,
0,
0,
0,
0,
0,
0,
0,
0,
0,
0,
0,
0,
0,
0,
0,
0,
0,
0,
0,
0,
0,
0,
0,
0,
0,
0,
0,
0,
0,
0,
0,
0,
0,
0,
0,
0,
0,
0,
0,
0,
0,
0,
0,
0,
0,
0,
0,
0,
0,
0,
0,
0,
0,
0,
0,
0,
0,
0,
0,
0,
0,
0,
0,
0,
0,
0,
0,
0,
0,
0,
0,
0,
0,
0,
0,
0,
0,
0,
0,
0,
0,
0,
0,
0,
0,
#ENDOFDATA   :

File: GMIIIA K253[0][4].msa
#FORMAT      : EMSA/MAS Spectral Data File
#VERSION     : 1.0
#TITLE       : GMIIIA K253[0][all]
#DATE        : 22-SEP-2025
#TIME        : 14:39
#OWNER       : Unknown
#NPOINTS     : 4096
#NCOLUMNS    : 1
#XUNITS      : eV
#YUNITS      : counts
#DATATYPE    : Y
#XPERCHAN    : 9.99778
#OFFSET      : 1.69135
#BEAMKV      : 15
#SIGNALTYPE  : EDS
#ELEVANGLE   : 35
#AZIMANGLE   : 0
#LIVETIME    : 239.922
#REALTIME    : 257.063
#PROBECUR    : 1.21983
#TAUWIND     : 0
#TDEADLYR    : 0
#TACTLYR     : 0.045
#TALWIND     : 0.025
#CHOFFSET    : 0.0
#XLABEL      : Energy (eV)
#YLABEL      : Counts
#XPOSITION   : 2.54222
#YPOSITION   : 2.32937
#ZPOSITION   : 37.36299
#EDSDET      : SD
##SPECIMEN   : GMIIIA K253[0][all]
##D2STDCMP   : K253,(O:31.64),(Si:18.7),(Mn:6.32),(Co:1.97),(Cu:2.0),(Zn:8.03),(Ba:31.35)
##DET_HASH   : 12273538-fd48-a23f-0a19-f1e6fa85caef
##CALIB_HASH : 6abaa72c-aa41-8738-0be9-f592914732f3
##WORKING    : 15.0 mm
##DET_NAME   : EDAX All
##DET_MODE   : MediumLE
#SPECTRUM    :
28,
412,
9439,
12495,
81204,
7711,
7691,
24816,
5686,
5116,
5510,
6398,
43042,
21834,
4222,
4348,
4637,
4291,
4233,
4289,
4001,
3818,
3719,
3500,
3477,
3424,
3289,
3218,
3756,
2928,
2864,
4526,
31077,
2911,
7902,
10046,
3117,
6538,
2128,
2726,
2807,
2464,
9681,
2317,
1576,
1596,
2255,
1771,
1358,
2177,
1924,
1234,
1190,
1125,
1184,
1237,
1101,
1701,
1395,
950,
903,
1976,
2809,
903,
917,
719,
740,
681,
947,
833,
593,
588,
548,
548,
507,
493,
448,
462,
421,
413,
371,
334,
325,
287,
269,
255,
256,
228,
212,
198,
186,
190,
193,
144,
145,
102,
116,
97,
99,
71,
67,
50,
40,
36,
38,
19,
5,
4,
1,
1,
0,
1,
0,
2,
1,
1,
2,
0,
3,
0,
0,
1,
1,
0,
1,
0,
0,
0,
0,
0,
1,
1,
0,
0,
0,
0,
0,
0,
1,
0,
0,
1,
0,
2,
0,
0,
0,
0,
0,
0,
0,
0,
0,
0,
0,
0,
0,
0,
0,
0,
0,
0,
0,
0,
0,
0,
0,
0,
0,
0,
0,
0,
0,
0,
0,
0,
0,
0,
0,
0,
0,
0,
0,
0,
0,
0,
0,
0,
0,
0,
0,
0,
0,
0,
0,
0,
0,
0,
0,
0,
0,
0,
0,
0,
0,
0,
0,
0,
0,
0,
0,
0,
0,
0,
0,
0,
0,
0,
0,
0,
0,
0,
0,
0,
0,
0,
0,
0,
0,
0,
0,
0,
0,
0,
0,
0,
0,
0,
0,
0,
0,
0,
0,
0,
0,
0,
0,
0,
0,
0,
0,
0,
0,
0,
0,
0,
0,
0,
0,
0,
0,
0,
0,
0,
0,
0,
0,
0,
0,
0,
0,
0,
0,
0,
0,
0,
0,
0,
0,
0,
0,
0,
0,
0,
0,
0,
0,
0,
0,
0,
0,
0,
0,
0,
#ENDOFDATA   :

File: GMIIIA K253[1][4].msa
#FORMAT      : EMSA/MAS Spectral Data File
#VERSION     : 1.0
#TITLE       : GMIIIA K253[1][all]
#DATE        : 22-SEP-2025
#TIME        : 14:41
#OWNER       : Unknown
#NPOINTS     : 4096
#NCOLUMNS    : 1
#XUNITS      : eV
#YUNITS      : counts
#DATATYPE    : Y
#XPERCHAN    : 9.99778
#OFFSET      : 1.69135
#BEAMKV      : 15
#SIGNALTYPE  : EDS
#ELEVANGLE   : 35
#AZIMANGLE   : 0
#LIVETIME    : 239.864
#REALTIME    : 256.997
#PROBECUR    : 1.21983
#TAUWIND     : 0
#TDEADLYR    : 0
#TACTLYR     : 0.045
#TALWIND     : 0.025
#CHOFFSET    : 0.0
#XLABEL      : Energy (eV)
#YLABEL      : Counts
#XPOSITION   : 2.53598
#YPOSITION   : 2.23977
#ZPOSITION   : 37.36299
#EDSDET      : SD
##SPECIMEN   : GMIIIA K253[1][all]
##D2STDCMP   : K253,(O:31.64),(Si:18.7),(Mn:6.32),(Co:1.97),(Cu:2.0),(Zn:8.03),(Ba:31.35)
##DET_HASH   : 12273538-fd48-a23f-0a19-f1e6fa85caef
##CALIB_HASH : 6abaa72c-aa41-8738-0be9-f592914732f3
##WORKING    : 15.0 mm
##DET_NAME   : EDAX All
##DET_MODE   : MediumLE
#SPECTRUM    :
27,
361,
9204,
12525,
80922,
7598,
7878,
24425,
5541,
5097,
5459,
6268,
42520,
21943,
4473,
4397,
4557,
4348,
4077,
4125,
4042,
3787,
3693,
3534,
3413,
3411,
3167,
3062,
3880,
2999,
2767,
4567,
31448,
2983,
7787,
10151,
3150,
6505,
2131,
2760,
2745,
2450,
9659,
2479,
1620,
1578,
2261,
1668,
1352,
2355,
1937,
1251,
1213,
1149,
1245,
1179,
1091,
1721,
1527,
947,
924,
2004,
2842,
871,
862,
744,
806,
707,
938,
779,
599,
584,
549,
512,
577,
471,
457,
448,
366,
404,
378,
342,
357,
297,
292,
280,
249,
245,
269,
200,
204,
177,
170,
144,
121,
111,
115,
97,
98,
73,
63,
64,
54,
39,
27,
21,
10,
3,
2,
1,
1,
3,
1,
0,
0,
2,
0,
0,
0,
1,
1,
1,
1,
0,
0,
0,
0,
0,
2,
1,
0,
1,
0,
0,
1,
1,
2,
1,
0,
0,
0,
1,
0,
0,
1,
0,
0,
0,
0,
1,
0,
0,
1,
0,
0,
0,
0,
0,
0,
0,
0,
0,
0,
0,
0,
0,
0,
0,
0,
0,
0,
0,
0,
0,
0,
0,
0,
0,
0,
0,
0,
0,
0,
0,
0,
0,
0,
0,
0,
0,
0,
0,
0,
0,
0,
0,
0,
0,
0,
0,
0,
0,
0,
0,
0,
0,
0,
0,
0,
0,
0,
0,
0,
0,
0,
0,
0,
0,
0,
0,
0,
0,
0,
0,
0,
0,
0,
0,
0,
0,
0,
0,
0,
0,
0,
0,
0,
0,
0,
0,
0,
0,
0,
0,
0,
0,
0,
0,
0,
0,
0,
0,
0,
0,
0,
0,
0,
0,
0,
0,
0,
0,
0,
0,
0,
0,
0,
0,
0,
0,
0,
0,
0,
0,
0,
0,
0,
0,
0,
0,
0,
0,
0,
0,
0,
0,
0,
0,
0,
0,
0,
0,
0,
0,
#ENDOFDATA   :

File: GMIIIA K253[2][4].msa
#FORMAT      : EMSA/MAS Spectral Data File
#VERSION     : 1.0
#TITLE       : GMIIIA K253[2][all]
#DATE        : 22-SEP-2025
#TIME        : 14:42
#OWNER       : Unknown
#NPOINTS     : 4096
#NCOLUMNS    : 1
#XUNITS      : eV
#YUNITS      : counts
#DATATYPE    : Y
#XPERCHAN    : 9.99778
#OFFSET      : 1.69135
#BEAMKV      : 15
#SIGNALTYPE  : EDS
#ELEVANGLE   : 35
#AZIMANGLE   : 0
#LIVETIME    : 239.8805
#REALTIME    : 257.014
#PROBECUR    : 1.21983
#TAUWIND     : 0
#TDEADLYR    : 0
#TACTLYR     : 0.045
#TALWIND     : 0.025
#CHOFFSET    : 0.0
#XLABEL      : Energy (eV)
#YLABEL      : Counts
#XPOSITION   : 2.58879
#YPOSITION   : 2.34207
#ZPOSITION   : 37.36299
#EDSDET      : SD
##SPECIMEN   : GMIIIA K253[2][all]
##D2STDCMP   : K253,(O:31.64),(Si:18.7),(Mn:6.32),(Co:1.97),(Cu:2.0),(Zn:8.03),(Ba:31.35)
##DET_HASH   : 12273538-fd48-a23f-0a19-f1e6fa85caef
##CALIB_HASH : 6abaa72c-aa41-8738-0be9-f592914732f3
##WORKING    : 15.0 mm
##DET_NAME   : EDAX All
##DET_MODE   : MediumLE
#SPECTRUM    :
25,
375,
9238,
12368,
81022,
7864,
7894,
24658,
5654,
5065,
5372,
6381,
42735,
21740,
4404,
4403,
4825,
4304,
4213,
4216,
4033,
3748,
3783,
3503,
3425,
3358,
3108,
3124,
3853,
3073,
2864,
4633,
31381,
2848,
7683,
10057,
3181,
6484,
2060,
2655,
2816,
2420,
9710,
2350,
1602,
1538,
2214,
1679,
1388,
2175,
1949,
1211,
1258,
1081,
1197,
1248,
1028,
1622,
1420,
929,
946,
2007,
2816,
942,
949,
746,
700,
664,
989,
771,
587,
575,
576,
487,
527,
477,
465,
448,
382,
386,
347,
381,
329,
340,
316,
278,
271,
253,
247,
206,
191,
182,
153,
153,
146,
141,
119,
93,
111,
74,
66,
52,
51,
35,
24,
16,
8,
4,
1,
1,
3,
0,
0,
1,
1,
0,
1,
1,
0,
1,
2,
0,
3,
0,
1,
0,
0,
2,
0,
2,
0,
0,
0,
1,
3,
0,
0,
0,
0,
1,
0,
0,
0,
0,
0,
0,
0,
0,
0,
0,
0,
1,
0,
0,
0,
0,
0,
0,
0,
0,
0,
0,
0,
0,
0,
0,
0,
0,
0,
0,
0,
0,
0,
0,
0,
0,
0,
0,
0,
0,
0,
0,
0,
0,
0,
0,
0,
0,
0,
0,
0,
0,
0,
0,
0,
0,
0,
0,
0,
0,
0,
0,
0,
0,
0,
0,
0,
0,
0,
0,
0,
0,
0,
0,
0,
0,
0,
0,
0,
0,
0,
0,
0,
0,
0,
0,
0,
0,
0,
0,
0,
0,
0,
0,
0,
0,
0,
0,
0,
0,
0,
0,
0,
0,
0,
0,
0,
0,
0,
0,
0,
0,
0,
0,
0,
0,
0,
0,
0,
0,
0,
0,
0,
0,
0,
0,
0,
0,
0,
0,
0,
0,
0,
0,
0,
0,
0,
0,
0,
0,
0,
0,
0,
0,
0,
0,
0,
0,
0,
0,
0,
0,
0,
0,
#ENDOFDATA   :

File: GMIIIA K253[3][4].msa
#FORMAT      : EMSA/MAS Spectral Data File
#VERSION     : 1.0
#TITLE       : GMIIIA K253[3][all]
#DATE        : 22-SEP-2025
#TIME        : 14:43
#OWNER       : Unknown
#NPOINTS     : 4096
#NCOLUMNS    : 1
#XUNITS      : eV
#YUNITS      : counts
#DATATYPE    : Y
#XPERCHAN    : 9.99778
#OFFSET      : 1.69135
#BEAMKV      : 15
#SIGNALTYPE  : EDS
#ELEVANGLE   : 35
#AZIMANGLE   : 0
#LIVETIME    : 239.923
#REALTIME    : 257.064
#PROBECUR    : 1.21983
#TAUWIND     : 0
#TDEADLYR    : 0
#TACTLYR     : 0.045
#TALWIND     : 0.025
#CHOFFSET    : 0.0
#XLABEL      : Energy (eV)
#YLABEL      : Counts
#XPOSITION   : 2.58634
#YPOSITION   : 2.33133
#ZPOSITION   : 37.36299
#EDSDET      : SD
##SPECIMEN   : GMIIIA K253[3][all]
##D2STDCMP   : K253,(O:31.64),(Si:18.7),(Mn:6.32),(Co:1.97),(Cu:2.0),(Zn:8.03),(Ba:31.35)
##DET_HASH   : 12273538-fd48-a23f-0a19-f1e6fa85caef
##CALIB_HASH : 6abaa72c-aa41-8738-0be9-f592914732f3
##WORKING    : 15.0 mm
##DET_NAME   : EDAX All
##DET_MODE   : MediumLE
#SPECTRUM    :
25,
373,
9268,
12583,
81159,
7698,
7686,
24560,
5613,
5008,
5554,
6217,
42980,
21679,
4376,
4334,
4776,
4249,
4156,
4299,
4096,
3801,
3826,
3596,
3514,
3417,
3207,
3092,
3774,
3015,
2916,
4552,
31693,
3005,
7581,
10015,
3168,
6699,
2110,
2728,
2831,
2394,
9468,
2416,
1619,
1580,
2250,
1700,
1383,
2277,
1845,
1279,
1150,
1241,
1256,
1236,
1043,
1647,
1453,
969,
935,
2000,
2882,
992,
874,
720,
683,
712,
969,
799,
579,
578,
567,
556,
504,
508,
452,
399,
436,
367,
370,
371,
327,
330,
287,
221,
276,
234,
240,
210,
218,
185,
144,
148,
128,
127,
106,
93,
85,
90,
67,
49,
46,
24,
22,
21,
9,
5,
2,
3,
0,
1,
0,
1,
0,
3,
0,
0,
0,
1,
1,
0,
1,
1,
1,
0,
2,
0,
1,
0,
0,
1,
0,
0,
0,
0,
0,
0,
0,
0,
0,
1,
0,
0,
0,
0,
0,
0,
0,
0,
0,
0,
0,
0,
0,
0,
0,
0,
0,
0,
0,
0,
0,
0,
0,
0,
0,
1,
0,
0,
0,
0,
0,
0,
0,
0,
0,
0,
0,
0,
0,
0,
0,
0,
0,
0,
0,
0,
0,
0,
0,
0,
0,
0,
0,
0,
0,
0,
0,
0,
0,
0,
0,
0,
0,
0,
0,
0,
0,
0,
0,
0,
0,
0,
0,
0,
0,
0,
0,
0,
0,
0,
0,
0,
0,
0,
0,
0,
0,
0,
0,
0,
0,
0,
0,
0,
0,
0,
0,
0,
0,
0,
0,
0,
0,
0,
0,
0,
0,
0,
0,
0,
0,
0,
0,
0,
0,
0,
0,
0,
0,
0,
0,
0,
0,
0,
0,
0,
0,
0,
0,
0,
0,
0,
0,
0,
0,
0,
0,
0,
0,
0,
0,
0,
0,
0,
0,
0,
0,
0,
0,
0,
0,
0,
#ENDOFDATA   :

File: GMIIIA K253[4][4].msa
#FORMAT      : EMSA/MAS Spectral Data File
#VERSION     : 1.0
#TITLE       : GMIIIA K253[4][all]
#DATE        : 22-SEP-2025
#TIME        : 14:44
#OWNER       : Unknown
#NPOINTS     : 4096
#NCOLUMNS    : 1
#XUNITS      : eV
#YUNITS      : counts
#DATATYPE    : Y
#XPERCHAN    : 9.99778
#OFFSET      : 1.69135
#BEAMKV      : 15
#SIGNALTYPE  : EDS
#ELEVANGLE   : 35
#AZIMANGLE   : 0
#LIVETIME    : 239.9699
#REALTIME    : 257.124
#PROBECUR    : 1.21983
#TAUWIND     : 0
#TDEADLYR    : 0
#TACTLYR     : 0.045
#TALWIND     : 0.025
#CHOFFSET    : 0.0
#XLABEL      : Energy (eV)
#YLABEL      : Counts
#XPOSITION   : 2.52118
#YPOSITION   : 2.35389
#ZPOSITION   : 37.36299
#EDSDET      : SD
##SPECIMEN   : GMIIIA K253[4][all]
##D2STDCMP   : K253,(O:31.64),(Si:18.7),(Mn:6.32),(Co:1.97),(Cu:2.0),(Zn:8.03),(Ba:31.35)
##DET_HASH   : 12273538-fd48-a23f-0a19-f1e6fa85caef
##CALIB_HASH : 6abaa72c-aa41-8738-0be9-f592914732f3
##WORKING    : 15.0 mm
##DET_NAME   : EDAX All
##DET_MODE   : MediumLE
#SPECTRUM    :
26,
372,
9357,
12541,
80908,
7672,
7625,
24752,
5553,
5194,
5529,
6102,
42772,
21808,
4441,
4440,
4615,
4250,
4079,
4072,
4074,
3850,
3797,
3573,
3410,
3469,
3210,
3122,
3752,
3051,
2862,
4548,
31128,
2977,
7782,
10213,
3191,
6690,
2119,
2765,
2608,
2495,
9537,
2345,
1582,
1591,
2281,
1785,
1388,
2171,
1912,
1261,
1202,
1132,
1217,
1177,
1069,
1711,
1366,
975,
941,
2076,
2803,
891,
841,
728,
732,
710,
960,
778,
636,
560,
535,
533,
518,
496,
455,
416,
405,
376,
357,
380,
320,
331,
329,
276,
253,
244,
226,
220,
176,
169,
174,
143,
136,
108,
96,
93,
113,
59,
78,
71,
43,
30,
38,
29,
12,
5,
0,
1,
1,
0,
1,
1,
2,
0,
0,
0,
0,
1,
0,
0,
0,
0,
1,
1,
0,
1,
0,
1,
0,
0,
0,
2,
0,
0,
0,
0,
0,
0,
0,
0,
0,
0,
0,
0,
0,
0,
0,
0,
0,
1,
0,
0,
0,
0,
0,
0,
0,
0,
0,
0,
0,
0,
0,
0,
0,
0,
0,
0,
0,
0,
0,
0,
0,
0,
0,
0,
0,
0,
0,
0,
0,
0,
0,
0,
0,
0,
0,
0,
0,
0,
0,
0,
0,
0,
0,
0,
0,
0,
0,
0,
0,
0,
0,
0,
0,
0,
0,
0,
0,
0,
0,
0,
0,
0,
0,
0,
0,
0,
0,
0,
0,
0,
0,
0,
0,
0,
0,
0,
0,
0,
0,
0,
0,
0,
0,
0,
0,
0,
0,
0,
0,
0,
0,
0,
0,
0,
0,
0,
0,
0,
0,
0,
0,
0,
0,
0,
0,
0,
0,
0,
0,
0,
0,
0,
0,
0,
0,
0,
0,
0,
0,
0,
0,
0,
0,
0,
0,
0,
0,
0,
0,
0,
0,
0,
0,
0,
0,
0,
0,
0,
0,
0,
#ENDOFDATA   :

File: GMIIIA K253[5][4].msa
#FORMAT      : EMSA/MAS Spectral Data File
#VERSION     : 1.0
#TITLE       : GMIIIA K253[5][all]
#DATE        : 22-SEP-2025
#TIME        : 14:45
#OWNER       : Unknown
#NPOINTS     : 4096
#NCOLUMNS    : 1
#XUNITS      : eV
#YUNITS      : counts
#DATATYPE    : Y
#XPERCHAN    : 9.99778
#OFFSET      : 1.69135
#BEAMKV      : 15
#SIGNALTYPE  : EDS
#ELEVANGLE   : 35
#AZIMANGLE   : 0
#LIVETIME    : 239.9137
#REALTIME    : 257.068
#PROBECUR    : 1.21732
#TAUWIND     : 0
#TDEADLYR    : 0
#TACTLYR     : 0.045
#TALWIND     : 0.025
#CHOFFSET    : 0.0
#XLABEL      : Energy (eV)
#YLABEL      : Counts
#XPOSITION   : 2.48203
#YPOSITION   : 2.27586
#ZPOSITION   : 37.36299
#EDSDET      : SD
##SPECIMEN   : GMIIIA K253[5][all]
##D2STDCMP   : K253,(O:31.64),(Si:18.7),(Mn:6.32),(Co:1.97),(Cu:2.0),(Zn:8.03),(Ba:31.35)
##DET_HASH   : 12273538-fd48-a23f-0a19-f1e6fa85caef
##CALIB_HASH : 6abaa72c-aa41-8738-0be9-f592914732f3
##WORKING    : 15.0 mm
##DET_NAME   : EDAX All
##DET_MODE   : MediumLE
#SPECTRUM    :
17,
366,
9344,
12475,
80758,
7674,
7805,
24577,
5569,
5109,
5500,
6241,
42796,
21928,
4386,
4306,
4656,
4381,
4270,
4151,
3995,
3755,
3816,
3604,
3575,
3448,
3220,
3066,
3801,
3110,
2821,
4659,
31725,
2902,
7825,
10055,
3143,
6555,
2071,
2686,
2773,
2480,
9681,
2285,
1559,
1523,
2206,
1735,
1415,
2204,
1942,
1226,
1177,
1206,
1203,
1129,
1004,
1660,
1382,
936,
870,
2077,
2731,
940,
853,
773,
726,
726,
953,
790,
601,
573,
548,
549,
480,
477,
473,
440,
380,
390,
395,
324,
334,
326,
314,
285,
244,
226,
227,
214,
177,
187,
164,
169,
129,
121,
97,
103,
100,
77,
72,
52,
50,
44,
24,
19,
9,
6,
2,
1,
1,
0,
1,
1,
2,
0,
1,
0,
1,
0,
2,
2,
1,
0,
0,
1,
1,
1,
1,
0,
0,
1,
1,
0,
1,
1,
0,
0,
0,
1,
0,
0,
0,
0,
0,
0,
0,
1,
0,
0,
0,
0,
0,
0,
0,
0,
0,
1,
0,
0,
0,
0,
0,
0,
0,
0,
0,
0,
0,
0,
0,
0,
0,
0,
0,
0,
0,
0,
0,
0,
0,
0,
0,
0,
0,
0,
0,
0,
0,
0,
0,
0,
0,
0,
0,
0,
0,
0,
0,
0,
0,
0,
0,
0,
0,
0,
0,
0,
0,
0,
0,
0,
0,
0,
0,
0,
0,
0,
0,
0,
0,
0,
0,
0,
0,
0,
0,
0,
0,
0,
0,
0,
0,
0,
0,
0,
0,
0,
0,
0,
0,
0,
0,
0,
0,
0,
0,
0,
0,
0,
0,
0,
0,
0,
0,
0,
0,
0,
0,
0,
0,
0,
0,
0,
0,
0,
0,
0,
0,
0,
0,
0,
0,
0,
0,
0,
0,
0,
0,
0,
0,
0,
0,
0,
0,
0,
0,
0,
0,
0,
0,
0,
0,
0,
#ENDOFDATA   :