Folder: spex_quant/N132962/Quantification/15 keV/GMIIIA

Note: README.md
# spex_quant
Spectral data for evaluating `spex`.  It contains both standard spectra and sample spectra.

 * N132962 represents the TESCAN MIRA4 with 4 silicon nitride window silicon drift detectors in 217 D113 at NIST Gaitherburg.
  * Reference set: "N132962 20 keV" built using 'n132962_20keV.bat' for 20 keV analyses

File: GMIIIA K227[0][4].msa
#FORMAT      : EMSA/MAS Spectral Data File
#VERSION     : 1.0
#TITLE       : GMIIIA K227[0][all]
#DATE        : 22-SEP-2025
#TIME        : 14:15
#OWNER       : Unknown
#NPOINTS     : 4096
#NCOLUMNS    : 1
#XUNITS      : eV
#YUNITS      : counts
#DATATYPE    : Y
#XPERCHAN    : 9.99778
#OFFSET      : 1.69135
#BEAMKV      : 15
#SIGNALTYPE  : EDS
#ELEVANGLE   : 35
#AZIMANGLE   : 0
#LIVETIME    : 240.041
#REALTIME    : 261.289
#PROBECUR    : 1.21983
#TAUWIND     : 0
#TDEADLYR    : 0
#TACTLYR     : 0.045
#TALWIND     : 0.025
#CHOFFSET    : 0.0
#XLABEL      : Energy (eV)
#YLABEL      : Counts
#XPOSITION   : 7.71643
#YPOSITION   : 0.38332
#ZPOSITION   : 37.36299
#EDSDET      : SD
##SPECIMEN   : GMIIIA K227[0][all]
##D2STDCMP   : K227,(O:16.39),(Si:9.35),(Pb:74.27)
##DET_HASH   : 12273538-fd48-a23f-0a19-f1e6fa85caef
##CALIB_HASH : 6abaa72c-aa41-8738-0be9-f592914732f3
##WORKING    : 15.0 mm
##DET_NAME   : EDAX All
##DET_MODE   : MediumLE
#SPECTRUM    :
22,
773,
14307,
8447,
28682,
10590,
8213,
8634,
9167,
9967,
10338,
10822,
34927,
30997,
8770,
8819,
18101,
136929,
22855,
11695,
5302,
5609,
6890,
5208,
4924,
4937,
4649,
4638,
4505,
4493,
4458,
4295,
4413,
4138,
4212,
4034,
3891,
3730,
3615,
3650,
3482,
3418,
3275,
3226,
3124,
3056,
3000,
2873,
2760,
2664,
2694,
2541,
2419,
2507,
2396,
2281,
2111,
2127,
1938,
1949,
1918,
1813,
1851,
1781,
1640,
1625,
1578,
1459,
1488,
1486,
1401,
1332,
1283,
1199,
1346,
2473,
1748,
1006,
960,
908,
886,
791,
829,
732,
728,
672,
628,
665,
569,
577,
737,
511,
448,
390,
324,
298,
277,
267,
235,
187,
189,
171,
123,
104,
68,
58,
36,
8,
8,
5,
6,
1,
7,
4,
6,
6,
0,
2,
2,
1,
0,
0,
0,
2,
2,
2,
1,
3,
5,
2,
1,
0,
0,
0,
2,
2,
1,
0,
1,
0,
1,
0,
0,
0,
0,
1,
0,
1,
0,
1,
1,
0,
0,
1,
0,
0,
0,
0,
0,
0,
0,
0,
0,
0,
0,
1,
0,
0,
1,
0,
0,
0,
0,
0,
1,
1,
0,
0,
0,
0,
0,
0,
0,
0,
0,
0,
0,
0,
0,
0,
0,
0,
0,
0,
0,
0,
0,
0,
0,
0,
0,
0,
0,
0,
0,
0,
0,
0,
0,
0,
0,
0,
0,
0,
0,
0,
0,
0,
0,
0,
0,
0,
0,
0,
0,
0,
0,
0,
0,
0,
0,
0,
0,
0,
0,
0,
0,
0,
0,
0,
0,
0,
0,
0,
0,
0,
0,
0,
0,
0,
0,
0,
0,
0,
0,
0,
0,
0,
0,
0,
0,
0,
0,
0,
0,
0,
0,
0,
0,
0,
0,
0,
0,
0,
0,
0,
0,
0,
0,
0,
0,
0,
0,
0,
0,
0,
0,
0,
0,
0,
0,
0,
0,
0,
#ENDOFDATA   :

File: GMIIIA K227[1][4].msa
#FORMAT      : EMSA/MAS Spectral Data File
#VERSION     : 1.0
#TITLE       : GMIIIA K227[1][all]
#DATE        : 22-SEP-2025
#TIME        : 14:16
#OWNER       : Unknown
#NPOINTS     : 4096
#NCOLUMNS    : 1
#XUNITS      : eV
#YUNITS      : counts
#DATATYPE    : Y
#XPERCHAN    : 9.99778
#OFFSET      : 1.69135
#BEAMKV      : 15
#SIGNALTYPE  : EDS
#ELEVANGLE   : 35
#AZIMANGLE   : 0
#LIVETIME    : 239.985
#REALTIME    : 261.229
#PROBECUR    : 1.21983
#TAUWIND     : 0
#TDEADLYR    : 0
#TACTLYR     : 0.045
#TALWIND     : 0.025
#CHOFFSET    : 0.0
#XLABEL      : Energy (eV)
#YLABEL      : Counts
#XPOSITION   : 7.72066
#YPOSITION   : 0.36426
#ZPOSITION   : 37.36299
#EDSDET      : SD
##SPECIMEN   : GMIIIA K227[1][all]
##D2STDCMP   : K227,(O:16.39),(Si:9.35),(Pb:74.27)
##DET_HASH   : 12273538-fd48-a23f-0a19-f1e6fa85caef
##CALIB_HASH : 6abaa72c-aa41-8738-0be9-f592914732f3
##WORKING    : 15.0 mm
##DET_NAME   : EDAX All
##DET_MODE   : MediumLE
#SPECTRUM    :
29,
737,
14500,
8423,
28498,
10329,
8105,
8648,
9247,
9874,
10276,
10732,
34952,
31286,
8687,
8947,
17831,
136622,
22883,
11629,
5254,
5778,
6834,
5284,
4912,
4888,
4646,
4710,
4596,
4544,
4462,
4168,
4397,
4153,
4280,
4092,
3728,
3750,
3657,
3515,
3358,
3426,
3414,
3190,
3075,
3144,
2987,
2876,
2800,
2655,
2622,
2497,
2511,
2391,
2315,
2226,
2185,
2095,
1992,
2001,
1941,
1839,
1759,
1693,
1782,
1745,
1610,
1503,
1455,
1398,
1301,
1363,
1275,
1223,
1268,
2542,
1645,
1019,
960,
921,
892,
870,
837,
745,
708,
648,
587,
614,
597,
550,
728,
523,
462,
414,
354,
317,
309,
232,
223,
210,
164,
141,
137,
99,
86,
63,
22,
14,
6,
2,
5,
1,
3,
1,
1,
4,
3,
2,
3,
4,
0,
5,
0,
1,
1,
3,
1,
2,
1,
4,
1,
0,
0,
0,
0,
2,
0,
1,
1,
2,
0,
0,
0,
0,
0,
1,
0,
0,
0,
0,
2,
0,
0,
0,
0,
1,
0,
0,
1,
0,
0,
0,
0,
0,
0,
2,
0,
0,
0,
0,
0,
0,
0,
0,
0,
0,
0,
0,
0,
0,
0,
0,
0,
0,
0,
0,
0,
0,
0,
0,
0,
0,
0,
0,
0,
0,
0,
0,
0,
0,
0,
0,
0,
0,
0,
0,
0,
0,
0,
0,
0,
0,
0,
0,
0,
0,
0,
0,
0,
0,
0,
0,
0,
0,
0,
0,
0,
0,
0,
0,
0,
0,
0,
0,
0,
0,
0,
0,
0,
0,
0,
0,
0,
0,
0,
0,
0,
0,
0,
0,
0,
0,
0,
0,
0,
0,
0,
0,
0,
0,
0,
0,
0,
0,
0,
0,
0,
0,
0,
0,
0,
0,
0,
0,
0,
0,
0,
0,
0,
0,
0,
0,
0,
0,
0,
0,
0,
0,
0,
0,
0,
0,
0,
0,
#ENDOFDATA   :

File: GMIIIA K227[2][4].msa
#FORMAT      : EMSA/MAS Spectral Data File
#VERSION     : 1.0
#TITLE       : GMIIIA K227[2][all]
#DATE        : 22-SEP-2025
#TIME        : 14:17
#OWNER       : Unknown
#NPOINTS     : 4096
#NCOLUMNS    : 1
#XUNITS      : eV
#YUNITS      : counts
#DATATYPE    : Y
#XPERCHAN    : 9.99778
#OFFSET      : 1.69135
#BEAMKV      : 15
#SIGNALTYPE  : EDS
#ELEVANGLE   : 35
#AZIMANGLE   : 0
#LIVETIME    : 240.363
#REALTIME    : 261.675
#PROBECUR    : 1.21983
#TAUWIND     : 0
#TDEADLYR    : 0
#TACTLYR     : 0.045
#TALWIND     : 0.025
#CHOFFSET    : 0.0
#XLABEL      : Energy (eV)
#YLABEL      : Counts
#XPOSITION   : 7.72232
#YPOSITION   : 0.43815
#ZPOSITION   : 37.36299
#EDSDET      : SD
##SPECIMEN   : GMIIIA K227[2][all]
##D2STDCMP   : K227,(O:16.39),(Si:9.35),(Pb:74.27)
##DET_HASH   : 12273538-fd48-a23f-0a19-f1e6fa85caef
##CALIB_HASH : 6abaa72c-aa41-8738-0be9-f592914732f3
##WORKING    : 15.0 mm
##DET_NAME   : EDAX All
##DET_MODE   : MediumLE
#SPECTRUM    :
28,
745,
14667,
8589,
28853,
10725,
8066,
8695,
9223,
10091,
10490,
10752,
35402,
30834,
8866,
8964,
18388,
137864,
22692,
11718,
5120,
5616,
6868,
5183,
4817,
4918,
4636,
4758,
4446,
4515,
4474,
4299,
4548,
4156,
4209,
3993,
3863,
3730,
3724,
3541,
3713,
3391,
3360,
3169,
3204,
3117,
2981,
2882,
2788,
2693,
2690,
2564,
2460,
2400,
2300,
2331,
2143,
2129,
2018,
1944,
1980,
1859,
1798,
1732,
1640,
1643,
1597,
1520,
1519,
1419,
1348,
1327,
1295,
1215,
1330,
2451,
1733,
1034,
989,
904,
853,
852,
837,
731,
641,
648,
668,
580,
585,
592,
735,
541,
401,
412,
356,
291,
279,
246,
248,
191,
169,
136,
143,
122,
79,
55,
33,
14,
6,
4,
5,
4,
3,
6,
1,
2,
4,
2,
3,
3,
1,
0,
1,
1,
3,
1,
3,
1,
1,
0,
4,
1,
1,
2,
1,
2,
1,
1,
0,
3,
0,
0,
1,
1,
0,
0,
0,
0,
1,
0,
1,
0,
0,
0,
0,
1,
0,
0,
0,
0,
0,
1,
0,
0,
0,
0,
0,
0,
0,
0,
0,
0,
0,
0,
0,
0,
0,
0,
0,
0,
0,
0,
0,
0,
0,
0,
0,
0,
0,
0,
0,
0,
0,
0,
0,
0,
0,
0,
0,
0,
0,
0,
0,
0,
0,
0,
0,
0,
0,
0,
0,
0,
0,
0,
0,
0,
0,
0,
0,
0,
0,
0,
0,
0,
0,
0,
0,
0,
0,
0,
0,
0,
0,
0,
0,
0,
0,
0,
0,
0,
0,
0,
0,
0,
0,
0,
0,
0,
0,
0,
0,
0,
0,
0,
0,
0,
0,
0,
0,
0,
0,
0,
0,
0,
0,
0,
0,
0,
0,
0,
0,
0,
0,
0,
0,
0,
0,
0,
0,
0,
0,
0,
0,
0,
0,
0,
0,
0,
0,
0,
0,
0,
0,
0,
#ENDOFDATA   :

File: GMIIIA K227[3][4].msa
#FORMAT      : EMSA/MAS Spectral Data File
#VERSION     : 1.0
#TITLE       : GMIIIA K227[3][all]
#DATE        : 22-SEP-2025
#TIME        : 14:19
#OWNER       : Unknown
#NPOINTS     : 4096
#NCOLUMNS    : 1
#XUNITS      : eV
#YUNITS      : counts
#DATATYPE    : Y
#XPERCHAN    : 9.99778
#OFFSET      : 1.69135
#BEAMKV      : 15
#SIGNALTYPE  : EDS
#ELEVANGLE   : 35
#AZIMANGLE   : 0
#LIVETIME    : 240.476
#REALTIME    : 261.799
#PROBECUR    : 1.21983
#TAUWIND     : 0
#TDEADLYR    : 0
#TACTLYR     : 0.045
#TALWIND     : 0.025
#CHOFFSET    : 0.0
#XLABEL      : Energy (eV)
#YLABEL      : Counts
#XPOSITION   : 7.66607
#YPOSITION   : 0.40631
#ZPOSITION   : 37.36299
#EDSDET      : SD
##SPECIMEN   : GMIIIA K227[3][all]
##D2STDCMP   : K227,(O:16.39),(Si:9.35),(Pb:74.27)
##DET_HASH   : 12273538-fd48-a23f-0a19-f1e6fa85caef
##CALIB_HASH : 6abaa72c-aa41-8738-0be9-f592914732f3
##WORKING    : 15.0 mm
##DET_NAME   : EDAX All
##DET_MODE   : MediumLE
#SPECTRUM    :
38,
792,
14560,
8377,
29291,
10764,
8101,
8723,
9227,
9890,
10318,
10974,
35227,
31399,
8789,
8907,
17763,
137320,
22921,
11870,
5251,
5844,
6831,
5238,
4758,
4890,
4723,
4765,
4457,
4585,
4445,
4357,
4374,
4273,
4263,
4105,
3894,
3829,
3643,
3654,
3416,
3358,
3375,
3111,
3096,
3028,
3068,
2889,
2717,
2732,
2676,
2573,
2515,
2456,
2341,
2243,
2158,
2223,
2106,
2035,
1968,
1849,
1833,
1756,
1626,
1689,
1668,
1552,
1518,
1440,
1361,
1260,
1273,
1203,
1301,
2525,
1658,
1024,
945,
913,
881,
864,
778,
754,
714,
691,
642,
634,
588,
580,
707,
533,
425,
388,
321,
316,
298,
256,
239,
186,
190,
169,
141,
99,
94,
61,
30,
11,
3,
3,
3,
3,
1,
1,
6,
3,
1,
5,
4,
0,
1,
2,
3,
3,
2,
0,
0,
2,
4,
1,
1,
3,
1,
1,
2,
0,
0,
0,
2,
0,
1,
0,
0,
0,
0,
1,
0,
0,
0,
0,
2,
1,
0,
0,
0,
0,
0,
1,
0,
1,
0,
0,
0,
0,
1,
0,
0,
0,
0,
0,
0,
0,
0,
0,
0,
0,
0,
0,
0,
0,
0,
0,
0,
0,
0,
0,
0,
0,
0,
0,
0,
0,
0,
0,
0,
0,
0,
0,
0,
0,
0,
0,
0,
0,
0,
0,
0,
0,
0,
0,
0,
0,
0,
0,
0,
0,
0,
0,
0,
0,
0,
0,
0,
0,
0,
0,
0,
0,
0,
0,
0,
0,
0,
0,
0,
0,
0,
0,
0,
0,
0,
0,
0,
0,
0,
0,
0,
0,
0,
0,
0,
0,
0,
0,
0,
0,
0,
0,
0,
0,
0,
0,
0,
0,
0,
0,
0,
0,
0,
0,
0,
0,
0,
0,
0,
0,
0,
0,
0,
0,
0,
0,
0,
0,
0,
0,
0,
0,
0,
0,
0,
0,
0,
0,
#ENDOFDATA   :

File: GMIIIA K227[4][4].msa
#FORMAT      : EMSA/MAS Spectral Data File
#VERSION     : 1.0
#TITLE       : GMIIIA K227[4][all]
#DATE        : 22-SEP-2025
#TIME        : 14:20
#OWNER       : Unknown
#NPOINTS     : 4096
#NCOLUMNS    : 1
#XUNITS      : eV
#YUNITS      : counts
#DATATYPE    : Y
#XPERCHAN    : 9.99778
#OFFSET      : 1.69135
#BEAMKV      : 15
#SIGNALTYPE  : EDS
#ELEVANGLE   : 35
#AZIMANGLE   : 0
#LIVETIME    : 239.661
#REALTIME    : 260.843
#PROBECUR    : 1.21983
#TAUWIND     : 0
#TDEADLYR    : 0
#TACTLYR     : 0.045
#TALWIND     : 0.025
#CHOFFSET    : 0.0
#XLABEL      : Energy (eV)
#YLABEL      : Counts
#XPOSITION   : 7.7164
#YPOSITION   : 0.28814
#ZPOSITION   : 37.36299
#EDSDET      : SD
##SPECIMEN   : GMIIIA K227[4][all]
##D2STDCMP   : K227,(O:16.39),(Si:9.35),(Pb:74.27)
##DET_HASH   : 12273538-fd48-a23f-0a19-f1e6fa85caef
##CALIB_HASH : 6abaa72c-aa41-8738-0be9-f592914732f3
##WORKING    : 15.0 mm
##DET_NAME   : EDAX All
##DET_MODE   : MediumLE
#SPECTRUM    :
36,
805,
14496,
8332,
28669,
10644,
8058,
8699,
9321,
9744,
10322,
10838,
35168,
30904,
8810,
8973,
17873,
136922,
22594,
11634,
5305,
5791,
6727,
5212,
4821,
4979,
4681,
4757,
4415,
4528,
4518,
4293,
4313,
4161,
4207,
3980,
3800,
3778,
3836,
3671,
3437,
3336,
3356,
3239,
3174,
3046,
3061,
2870,
2798,
2753,
2619,
2512,
2527,
2414,
2423,
2280,
2141,
2172,
2070,
1928,
1941,
1856,
1835,
1737,
1726,
1674,
1588,
1513,
1505,
1365,
1368,
1323,
1233,
1269,
1337,
2485,
1607,
1014,
962,
943,
879,
836,
777,
703,
730,
676,
660,
560,
607,
513,
750,
501,
409,
438,
319,
351,
292,
236,
241,
197,
183,
147,
118,
97,
84,
52,
31,
13,
5,
3,
3,
3,
3,
1,
2,
2,
5,
2,
2,
0,
1,
2,
2,
4,
2,
0,
0,
1,
0,
1,
1,
0,
0,
3,
1,
1,
0,
1,
2,
0,
2,
1,
0,
0,
0,
2,
0,
0,
0,
0,
0,
0,
0,
0,
0,
2,
0,
0,
1,
0,
0,
0,
0,
0,
0,
0,
1,
0,
0,
1,
0,
0,
0,
0,
0,
0,
0,
0,
0,
0,
0,
0,
0,
1,
0,
0,
0,
0,
0,
0,
0,
0,
0,
0,
0,
0,
0,
0,
0,
0,
0,
0,
0,
0,
0,
0,
0,
0,
0,
0,
0,
0,
0,
0,
0,
0,
0,
0,
0,
0,
0,
0,
0,
0,
0,
0,
0,
0,
0,
0,
0,
0,
0,
0,
0,
0,
0,
0,
0,
0,
0,
0,
0,
0,
0,
0,
0,
0,
0,
0,
0,
0,
0,
0,
0,
0,
0,
0,
0,
0,
0,
0,
0,
0,
0,
0,
0,
0,
0,
0,
0,
0,
0,
0,
0,
0,
0,
0,
0,
0,
0,
0,
0,
0,
0,
0,
0,
0,
0,
0,
0,
0,
0,
0,
#ENDOFDATA   :

File: GMIIIA K227[5][4].msa
#FORMAT      : EMSA/MAS Spectral Data File
#VERSION     : 1.0
#TITLE       : GMIIIA K227[5][all]
#DATE        : 22-SEP-2025
#TIME        : 14:21
#OWNER       : Unknown
#NPOINTS     : 4096
#NCOLUMNS    : 1
#XUNITS      : eV
#YUNITS      : counts
#DATATYPE    : Y
#XPERCHAN    : 9.99778
#OFFSET      : 1.69135
#BEAMKV      : 15
#SIGNALTYPE  : EDS
#ELEVANGLE   : 35
#AZIMANGLE   : 0
#LIVETIME    : 240.2368
#REALTIME    : 261.551
#PROBECUR    : 1.21983
#TAUWIND     : 0
#TDEADLYR    : 0
#TACTLYR     : 0.045
#TALWIND     : 0.025
#CHOFFSET    : 0.0
#XLABEL      : Energy (eV)
#YLABEL      : Counts
#XPOSITION   : 7.67287
#YPOSITION   : 0.38588
#ZPOSITION   : 37.36299
#EDSDET      : SD
##SPECIMEN   : GMIIIA K227[5][all]
##D2STDCMP   : K227,(O:16.39),(Si:9.35),(Pb:74.27)
##DET_HASH   : 12273538-fd48-a23f-0a19-f1e6fa85caef
##CALIB_HASH : 6abaa72c-aa41-8738-0be9-f592914732f3
##WORKING    : 15.0 mm
##DET_NAME   : EDAX All
##DET_MODE   : MediumLE
#SPECTRUM    :
27,
783,
14610,
8348,
28661,
10578,
8050,
8814,
9308,
9848,
10383,
10888,
35383,
31101,
8977,
8881,
17932,
137077,
22815,
11638,
5200,
5586,
6917,
5232,
4756,
4914,
4686,
4684,
4474,
4570,
4369,
4351,
4325,
4141,
4223,
4034,
3958,
3766,
3626,
3587,
3484,
3394,
3295,
3201,
3134,
3010,
3018,
2905,
2786,
2793,
2726,
2581,
2432,
2518,
2327,
2248,
2192,
2100,
2122,
2052,
1952,
1905,
1819,
1876,
1731,
1576,
1577,
1478,
1557,
1466,
1329,
1293,
1272,
1171,
1270,
2518,
1766,
999,
999,
920,
868,
830,
791,
744,
717,
710,
626,
610,
569,
551,
752,
482,
409,
418,
366,
314,
287,
290,
236,
200,
142,
166,
131,
123,
86,
58,
42,
17,
2,
7,
3,
3,
0,
3,
5,
4,
2,
1,
1,
2,
1,
2,
2,
1,
0,
1,
0,
2,
0,
0,
0,
2,
4,
0,
0,
0,
2,
2,
1,
1,
1,
2,
0,
0,
1,
2,
0,
2,
0,
0,
0,
0,
0,
0,
0,
0,
0,
0,
0,
0,
0,
0,
0,
0,
0,
0,
0,
0,
0,
0,
0,
0,
0,
0,
0,
1,
0,
0,
0,
0,
0,
0,
0,
0,
0,
0,
0,
0,
0,
0,
0,
0,
0,
0,
0,
0,
0,
0,
0,
0,
0,
0,
0,
0,
0,
0,
0,
0,
0,
0,
0,
0,
0,
0,
0,
0,
0,
0,
0,
0,
0,
0,
0,
0,
0,
0,
0,
0,
0,
0,
0,
0,
0,
0,
0,
0,
0,
0,
0,
0,
0,
0,
0,
0,
0,
0,
0,
0,
0,
0,
0,
0,
0,
0,
0,
0,
0,
0,
0,
0,
0,
0,
0,
0,
0,
0,
0,
0,
0,
0,
0,
0,
0,
0,
0,
0,
0,
0,
0,
0,
0,
0,
0,
0,
0,
0,
0,
0,
0,
0,
0,
0,
0,
0,
#ENDOFDATA   :

File: GMIIIA K227[6][4].msa
#FORMAT      : EMSA/MAS Spectral Data File
#VERSION     : 1.0
#TITLE       : GMIIIA K227[6][all]
#DATE        : 22-SEP-2025
#TIME        : 14:22
#OWNER       : Unknown
#NPOINTS     : 4096
#NCOLUMNS    : 1
#XUNITS      : eV
#YUNITS      : counts
#DATATYPE    : Y
#XPERCHAN    : 9.99778
#OFFSET      : 1.69135
#BEAMKV      : 15
#SIGNALTYPE  : EDS
#ELEVANGLE   : 35
#AZIMANGLE   : 0
#LIVETIME    : 239.691
#REALTIME    : 260.908
#PROBECUR    : 1.21983
#TAUWIND     : 0
#TDEADLYR    : 0
#TACTLYR     : 0.045
#TALWIND     : 0.025
#CHOFFSET    : 0.0
#XLABEL      : Energy (eV)
#YLABEL      : Counts
#XPOSITION   : 7.71645
#YPOSITION   : 0.31984
#ZPOSITION   : 37.36299
#EDSDET      : SD
##SPECIMEN   : GMIIIA K227[6][all]
##D2STDCMP   : K227,(O:16.39),(Si:9.35),(Pb:74.27)
##DET_HASH   : 12273538-fd48-a23f-0a19-f1e6fa85caef
##CALIB_HASH : 6abaa72c-aa41-8738-0be9-f592914732f3
##WORKING    : 15.0 mm
##DET_NAME   : EDAX All
##DET_MODE   : MediumLE
#SPECTRUM    :
38,
748,
14760,
8542,
28610,
10452,
7849,
8642,
9352,
9870,
10483,
10687,
35304,
30520,
8626,
8722,
18085,
137185,
22819,
11618,
5085,
5754,
6912,
5234,
4931,
4882,
4609,
4760,
4399,
4513,
4397,
4390,
4490,
4099,
4201,
4082,
3873,
3877,
3671,
3581,
3455,
3446,
3254,
3188,
3173,
2975,
3064,
2833,
2758,
2696,
2652,
2539,
2492,
2480,
2339,
2236,
2244,
2091,
1978,
1983,
2003,
1861,
1798,
1763,
1678,
1716,
1646,
1491,
1429,
1408,
1330,
1326,
1201,
1187,
1323,
2437,
1706,
1028,
1001,
961,
914,
801,
780,
709,
754,
690,
640,
588,
548,
559,
734,
498,
404,
429,
324,
272,
285,
242,
210,
214,
180,
161,
125,
115,
99,
67,
27,
14,
3,
3,
4,
4,
5,
5,
3,
5,
3,
2,
4,
4,
0,
2,
2,
3,
1,
3,
0,
5,
1,
2,
0,
0,
1,
0,
1,
0,
0,
1,
1,
0,
0,
1,
0,
0,
1,
2,
0,
0,
1,
0,
0,
1,
0,
0,
0,
0,
0,
0,
0,
0,
0,
0,
1,
1,
0,
1,
0,
0,
0,
0,
0,
0,
0,
0,
0,
0,
0,
0,
0,
0,
0,
0,
0,
0,
0,
0,
0,
0,
0,
0,
0,
0,
0,
0,
0,
0,
0,
0,
0,
0,
0,
0,
0,
0,
0,
0,
0,
0,
0,
0,
0,
0,
0,
0,
0,
0,
0,
0,
0,
0,
0,
0,
0,
0,
0,
0,
0,
0,
0,
0,
0,
0,
0,
0,
0,
0,
0,
0,
0,
0,
0,
0,
0,
0,
0,
0,
0,
0,
0,
0,
0,
0,
0,
0,
0,
0,
0,
0,
0,
0,
0,
0,
0,
0,
0,
0,
0,
0,
0,
0,
0,
0,
0,
0,
0,
0,
0,
0,
0,
0,
0,
0,
0,
0,
0,
0,
0,
0,
0,
0,
0,
0,
0,
0,
#ENDOFDATA   :

File: GMIIIA K229[0][4].msa
#FORMAT      : EMSA/MAS Spectral Data File
#VERSION     : 1.0
#TITLE       : GMIIIA K229[0][all]
#DATE        : 22-SEP-2025
#TIME        : 14:23
#OWNER       : Unknown
#NPOINTS     : 4096
#NCOLUMNS    : 1
#XUNITS      : eV
#YUNITS      : counts
#DATATYPE    : Y
#XPERCHAN    : 9.99778
#OFFSET      : 1.69135
#BEAMKV      : 15
#SIGNALTYPE  : EDS
#ELEVANGLE   : 35
#AZIMANGLE   : 0
#LIVETIME    : 239.906
#REALTIME    : 260.1414
#PROBECUR    : 1.21983
#TAUWIND     : 0
#TDEADLYR    : 0
#TACTLYR     : 0.045
#TALWIND     : 0.025
#CHOFFSET    : 0.0
#XLABEL      : Energy (eV)
#YLABEL      : Counts
#XPOSITION   : 5.92752
#YPOSITION   : 0.71367
#ZPOSITION   : 37.36299
#EDSDET      : SD
##SPECIMEN   : GMIIIA K229[0][all]
##D2STDCMP   : K229,(O:20.99),(Si:14.02),(Pb:64.98)
##DET_HASH   : 12273538-fd48-a23f-0a19-f1e6fa85caef
##CALIB_HASH : 6abaa72c-aa41-8738-0be9-f592914732f3
##WORKING    : 15.0 mm
##DET_NAME   : EDAX All
##DET_MODE   : MediumLE
#SPECTRUM    :
23,
551,
13004,
8560,
34034,
8705,
7590,
8083,
8590,
9201,
9637,
10240,
45174,
33517,
7750,
7679,
15621,
115577,
19624,
10512,
4719,
5194,
6154,
4772,
4567,
4451,
4187,
4142,
4161,
4072,
4118,
3787,
4077,
3786,
3653,
3474,
3357,
3382,
3307,
3152,
3138,
2994,
2913,
2928,
2715,
2712,
2623,
2674,
2440,
2393,
2347,
2287,
2199,
2227,
2123,
1872,
1910,
1826,
1734,
1647,
1700,
1626,
1552,
1503,
1504,
1483,
1455,
1328,
1255,
1227,
1125,
1119,
1062,
1083,
1091,
2059,
1442,
853,
812,
742,
802,
689,
690,
671,
620,
585,
564,
506,
425,
483,
635,
439,
343,
345,
274,
232,
241,
206,
198,
166,
152,
146,
108,
72,
62,
59,
19,
11,
4,
5,
1,
2,
1,
0,
1,
3,
0,
1,
0,
0,
2,
3,
2,
0,
2,
1,
3,
2,
2,
6,
2,
1,
1,
2,
2,
2,
0,
1,
0,
1,
0,
1,
1,
0,
0,
0,
0,
0,
0,
0,
0,
0,
0,
1,
0,
0,
1,
0,
0,
1,
0,
0,
0,
0,
0,
0,
0,
0,
0,
0,
0,
0,
0,
0,
0,
0,
0,
0,
0,
0,
1,
0,
0,
0,
0,
0,
0,
0,
0,
0,
0,
0,
0,
0,
0,
0,
0,
0,
0,
0,
0,
0,
0,
0,
0,
0,
0,
0,
0,
0,
0,
0,
0,
0,
0,
0,
0,
0,
0,
0,
0,
0,
0,
0,
0,
0,
0,
0,
0,
0,
0,
0,
0,
0,
0,
0,
0,
0,
0,
0,
0,
0,
0,
0,
0,
0,
0,
0,
0,
0,
0,
0,
0,
0,
0,
0,
0,
0,
0,
0,
0,
0,
0,
0,
0,
0,
0,
0,
0,
0,
0,
0,
0,
0,
0,
0,
0,
0,
0,
0,
0,
0,
0,
0,
0,
0,
0,
0,
0,
0,
0,
0,
0,
0,
#ENDOFDATA   :

File: GMIIIA K229[1][4].msa
#FORMAT      : EMSA/MAS Spectral Data File
#VERSION     : 1.0
#TITLE       : GMIIIA K229[1][all]
#DATE        : 22-SEP-2025
#TIME        : 14:24
#OWNER       : Unknown
#NPOINTS     : 4096
#NCOLUMNS    : 1
#XUNITS      : eV
#YUNITS      : counts
#DATATYPE    : Y
#XPERCHAN    : 9.99778
#OFFSET      : 1.69135
#BEAMKV      : 15
#SIGNALTYPE  : EDS
#ELEVANGLE   : 35
#AZIMANGLE   : 0
#LIVETIME    : 239.942
#REALTIME    : 260.142
#PROBECUR    : 1.21983
#TAUWIND     : 0
#TDEADLYR    : 0
#TACTLYR     : 0.045
#TALWIND     : 0.025
#CHOFFSET    : 0.0
#XLABEL      : Energy (eV)
#YLABEL      : Counts
#XPOSITION   : 5.9622
#YPOSITION   : 0.74248
#ZPOSITION   : 37.36299
#EDSDET      : SD
##SPECIMEN   : GMIIIA K229[1][all]
##D2STDCMP   : K229,(O:20.99),(Si:14.02),(Pb:64.98)
##DET_HASH   : 12273538-fd48-a23f-0a19-f1e6fa85caef
##CALIB_HASH : 6abaa72c-aa41-8738-0be9-f592914732f3
##WORKING    : 15.0 mm
##DET_NAME   : EDAX All
##DET_MODE   : MediumLE
#SPECTRUM    :
21,
548,
12894,
8475,
33377,
8628,
7350,
8058,
8719,
9380,
9964,
10012,
45087,
33227,
7794,
7784,
15509,
115385,
19763,
10361,
4712,
5191,
6226,
4717,
4429,
4432,
4165,
4208,
4036,
4020,
3978,
3824,
3880,
3737,
3657,
3674,
3420,
3292,
3294,
3213,
3132,
3066,
2969,
2876,
2734,
2779,
2689,
2607,
2394,
2428,
2386,
2232,
2180,
2107,
2075,
1983,
1869,
1883,
1778,
1691,
1692,
1573,
1509,
1532,
1468,
1463,
1328,
1317,
1191,
1265,
1246,
1180,
1171,
1049,
1142,
1997,
1421,
886,
830,
793,
755,
750,
646,
662,
587,
548,
549,
511,
499,
487,
598,
414,
346,
346,
293,
276,
242,
203,
190,
147,
143,
152,
85,
96,
67,
44,
26,
8,
4,
5,
3,
0,
2,
3,
3,
3,
2,
1,
5,
2,
1,
2,
4,
1,
0,
1,
2,
1,
1,
1,
1,
0,
1,
0,
0,
0,
1,
1,
0,
0,
0,
2,
1,
1,
0,
0,
0,
0,
0,
1,
0,
0,
0,
1,
0,
0,
0,
0,
1,
0,
1,
0,
0,
0,
0,
0,
0,
0,
0,
0,
0,
0,
0,
0,
0,
0,
0,
0,
0,
0,
0,
0,
0,
0,
0,
0,
0,
0,
0,
0,
0,
0,
0,
0,
0,
0,
0,
0,
0,
0,
0,
0,
0,
0,
0,
0,
0,
0,
0,
0,
0,
0,
0,
0,
0,
0,
0,
0,
0,
0,
0,
0,
0,
0,
0,
0,
0,
0,
0,
0,
0,
0,
0,
0,
0,
0,
0,
0,
0,
0,
0,
0,
0,
0,
0,
0,
0,
0,
0,
0,
0,
0,
0,
0,
0,
0,
0,
0,
0,
0,
0,
0,
0,
0,
0,
0,
0,
0,
0,
0,
0,
0,
0,
0,
0,
0,
0,
0,
0,
0,
0,
0,
0,
0,
0,
0,
0,
0,
0,
0,
0,
0,
0,
0,
#ENDOFDATA   :

File: GMIIIA K229[2][4].msa
#FORMAT      : EMSA/MAS Spectral Data File
#VERSION     : 1.0
#TITLE       : GMIIIA K229[2][all]
#DATE        : 22-SEP-2025
#TIME        : 14:25
#OWNER       : Unknown
#NPOINTS     : 4096
#NCOLUMNS    : 1
#XUNITS      : eV
#YUNITS      : counts
#DATATYPE    : Y
#XPERCHAN    : 9.99778
#OFFSET      : 1.69135
#BEAMKV      : 15
#SIGNALTYPE  : EDS
#ELEVANGLE   : 35
#AZIMANGLE   : 0
#LIVETIME    : 239.983
#REALTIME    : 260.201
#PROBECUR    : 1.21983
#TAUWIND     : 0
#TDEADLYR    : 0
#TACTLYR     : 0.045
#TALWIND     : 0.025
#CHOFFSET    : 0.0
#XLABEL      : Energy (eV)
#YLABEL      : Counts
#XPOSITION   : 5.91759
#YPOSITION   : 0.78294
#ZPOSITION   : 37.36299
#EDSDET      : SD
##SPECIMEN   : GMIIIA K229[2][all]
##D2STDCMP   : K229,(O:20.99),(Si:14.02),(Pb:64.98)
##DET_HASH   : 12273538-fd48-a23f-0a19-f1e6fa85caef
##CALIB_HASH : 6abaa72c-aa41-8738-0be9-f592914732f3
##WORKING    : 15.0 mm
##DET_NAME   : EDAX All
##DET_MODE   : MediumLE
#SPECTRUM    :
25,
572,
13102,
8653,
33874,
8382,
7562,
8139,
8736,
9115,
9667,
10281,
44883,
33318,
7755,
7886,
15476,
115366,
19607,
10244,
4811,
5138,
6243,
4863,
4421,
4706,
4232,
4203,
4023,
4153,
3990,
3881,
3920,
3785,
3729,
3586,
3465,
3230,
3192,
3123,
3109,
2961,
2949,
2809,
2855,
2717,
2786,
2568,
2494,
2362,
2340,
2271,
2201,
2089,
2046,
1951,
1906,
1870,
1790,
1714,
1606,
1702,
1516,
1546,
1469,
1510,
1460,
1369,
1248,
1206,
1248,
1122,
1083,
1049,
1154,
2126,
1429,
837,
869,
787,
767,
675,
657,
655,
643,
544,
558,
529,
470,
441,
612,
465,
353,
340,
263,
259,
207,
217,
189,
172,
130,
113,
122,
88,
61,
40,
23,
5,
3,
1,
3,
4,
3,
2,
2,
3,
3,
2,
1,
1,
0,
0,
0,
3,
1,
1,
3,
0,
1,
0,
1,
2,
1,
4,
1,
2,
1,
0,
0,
0,
0,
0,
1,
2,
0,
0,
0,
0,
0,
0,
0,
0,
0,
1,
0,
0,
0,
0,
0,
1,
0,
0,
1,
0,
1,
1,
0,
1,
0,
1,
1,
0,
0,
0,
0,
0,
0,
0,
0,
0,
0,
0,
0,
0,
0,
0,
0,
0,
0,
0,
0,
0,
0,
0,
1,
0,
0,
0,
0,
0,
0,
0,
0,
0,
0,
0,
0,
0,
0,
0,
0,
0,
0,
0,
0,
0,
0,
0,
0,
0,
0,
0,
0,
0,
0,
0,
0,
0,
0,
0,
0,
0,
0,
0,
0,
0,
0,
0,
0,
0,
0,
0,
0,
0,
0,
0,
0,
0,
0,
0,
0,
0,
0,
0,
0,
0,
0,
0,
0,
0,
0,
0,
0,
0,
0,
0,
0,
0,
0,
0,
0,
0,
0,
0,
0,
0,
0,
0,
0,
0,
0,
0,
0,
0,
0,
0,
0,
0,
0,
0,
0,
0,
0,
0,
#ENDOFDATA   :

File: GMIIIA K229[3][4].msa
#FORMAT      : EMSA/MAS Spectral Data File
#VERSION     : 1.0
#TITLE       : GMIIIA K229[3][all]
#DATE        : 22-SEP-2025
#TIME        : 14:27
#OWNER       : Unknown
#NPOINTS     : 4096
#NCOLUMNS    : 1
#XUNITS      : eV
#YUNITS      : counts
#DATATYPE    : Y
#XPERCHAN    : 9.99778
#OFFSET      : 1.69135
#BEAMKV      : 15
#SIGNALTYPE  : EDS
#ELEVANGLE   : 35
#AZIMANGLE   : 0
#LIVETIME    : 239.796
#REALTIME    : 260.007
#PROBECUR    : 1.21983
#TAUWIND     : 0
#TDEADLYR    : 0
#TACTLYR     : 0.045
#TALWIND     : 0.025
#CHOFFSET    : 0.0
#XLABEL      : Energy (eV)
#YLABEL      : Counts
#XPOSITION   : 5.9593
#YPOSITION   : 0.64671
#ZPOSITION   : 37.36299
#EDSDET      : SD
##SPECIMEN   : GMIIIA K229[3][all]
##D2STDCMP   : K229,(O:20.99),(Si:14.02),(Pb:64.98)
##DET_HASH   : 12273538-fd48-a23f-0a19-f1e6fa85caef
##CALIB_HASH : 6abaa72c-aa41-8738-0be9-f592914732f3
##WORKING    : 15.0 mm
##DET_NAME   : EDAX All
##DET_MODE   : MediumLE
#SPECTRUM    :
34,
631,
13275,
8512,
33801,
8362,
7548,
8032,
8606,
9186,
9818,
10205,
45540,
33592,
7784,
7818,
15592,
114722,
19523,
10469,
4798,
5191,
6253,
4712,
4320,
4559,
4252,
4188,
3976,
4163,
4134,
3849,
3932,
3865,
3674,
3600,
3372,
3412,
3184,
3217,
3102,
3015,
2979,
2882,
2811,
2730,
2672,
2522,
2431,
2500,
2175,
2135,
2100,
2176,
2033,
1984,
1995,
1821,
1888,
1670,
1691,
1624,
1585,
1538,
1434,
1425,
1456,
1324,
1278,
1203,
1227,
1157,
1022,
1022,
1172,
2196,
1365,
919,
822,
743,
757,
717,
695,
672,
622,
579,
520,
513,
453,
489,
623,
434,
397,
363,
279,
267,
241,
220,
193,
193,
142,
113,
104,
98,
67,
49,
30,
11,
1,
1,
5,
3,
2,
2,
6,
2,
1,
1,
0,
2,
1,
1,
0,
4,
0,
1,
2,
0,
1,
0,
0,
1,
4,
1,
0,
0,
0,
0,
0,
1,
0,
0,
1,
0,
0,
0,
0,
0,
0,
0,
1,
0,
0,
0,
1,
0,
0,
0,
0,
0,
0,
0,
0,
0,
0,
0,
0,
0,
0,
0,
0,
0,
0,
0,
0,
0,
0,
0,
0,
0,
0,
0,
0,
0,
0,
0,
0,
0,
0,
0,
0,
0,
0,
0,
0,
0,
0,
0,
0,
0,
0,
0,
0,
0,
0,
0,
0,
0,
0,
0,
0,
0,
0,
0,
0,
0,
0,
0,
0,
0,
0,
0,
0,
0,
0,
0,
0,
0,
0,
0,
0,
0,
0,
0,
0,
0,
0,
0,
0,
0,
0,
0,
0,
0,
0,
0,
0,
0,
0,
0,
0,
0,
0,
0,
0,
0,
0,
0,
0,
0,
0,
0,
0,
0,
0,
0,
0,
0,
0,
0,
0,
0,
0,
0,
0,
0,
0,
0,
0,
0,
0,
0,
0,
0,
0,
0,
0,
0,
0,
0,
0,
0,
0,
0,
#ENDOFDATA   :