Folder: spex_quant/N132962/Quantification/15 keV/GMIIIA (part 3)

File: GMIIIA K240[1][4].msa
#FORMAT      : EMSA/MAS Spectral Data File
#VERSION     : 1.0
#TITLE       : GMIIIA K240[1][all]
#DATE        : 22-SEP-2025
#TIME        : 15:13
#OWNER       : Unknown
#NPOINTS     : 4096
#NCOLUMNS    : 1
#XUNITS      : eV
#YUNITS      : counts
#DATATYPE    : Y
#XPERCHAN    : 9.99778
#OFFSET      : 1.69135
#BEAMKV      : 15
#SIGNALTYPE  : EDS
#ELEVANGLE   : 35
#AZIMANGLE   : 0
#LIVETIME    : 239.961
#REALTIME    : 256.041
#PROBECUR    : 1.21732
#TAUWIND     : 0
#TDEADLYR    : 0
#TACTLYR     : 0.045
#TALWIND     : 0.025
#CHOFFSET    : 0.0
#XLABEL      : Energy (eV)
#YLABEL      : Counts
#XPOSITION   : 11.37187
#YPOSITION   : 1.6943
#ZPOSITION   : 37.36299
#EDSDET      : SD
##SPECIMEN   : GMIIIA K240[1][all]
##D2STDCMP   : K240,(O:34.0),(Mg:3.02),(Si:18.7),(Ti:6.0),(Zn:4.02),(Zr:7.4),(Ba:26.87)
##DET_HASH   : 12273538-fd48-a23f-0a19-f1e6fa85caef
##CALIB_HASH : 6abaa72c-aa41-8738-0be9-f592914732f3
##WORKING    : 15.0 mm
##DET_NAME   : EDAX All
##DET_MODE   : MediumLE
#SPECTRUM    :
34,
411,
8887,
13669,
64286,
5131,
5984,
14836,
5821,
23142,
5567,
6234,
43873,
23106,
6825,
15262,
5337,
3925,
3935,
3797,
3722,
3544,
3420,
3276,
3155,
3218,
2990,
2836,
3328,
2808,
2635,
4090,
37905,
3869,
6449,
10073,
2972,
5495,
1900,
2291,
2315,
2014,
1769,
1577,
1438,
1463,
1477,
1303,
1288,
1288,
1149,
1183,
1088,
1029,
968,
982,
926,
928,
875,
851,
825,
1434,
1721,
762,
725,
716,
673,
622,
772,
600,
539,
543,
497,
479,
442,
437,
429,
387,
405,
327,
356,
339,
298,
286,
293,
256,
209,
216,
196,
175,
160,
146,
160,
138,
112,
119,
99,
95,
83,
68,
53,
45,
32,
27,
24,
21,
14,
0,
1,
3,
1,
0,
1,
0,
0,
1,
0,
0,
0,
0,
0,
1,
0,
0,
1,
1,
1,
0,
0,
0,
0,
0,
0,
0,
0,
0,
0,
0,
0,
0,
1,
1,
0,
0,
0,
0,
0,
0,
0,
0,
0,
0,
0,
0,
0,
0,
0,
0,
0,
0,
0,
0,
0,
0,
0,
0,
0,
0,
0,
0,
0,
0,
0,
0,
0,
0,
0,
0,
0,
0,
0,
0,
0,
0,
0,
0,
0,
0,
0,
0,
0,
0,
0,
0,
0,
0,
0,
0,
0,
0,
0,
0,
0,
0,
0,
0,
0,
0,
0,
0,
0,
0,
0,
0,
0,
0,
0,
0,
0,
0,
0,
0,
0,
0,
0,
0,
0,
0,
0,
0,
0,
0,
0,
0,
0,
0,
0,
0,
0,
0,
0,
0,
0,
0,
0,
0,
0,
0,
0,
0,
0,
0,
0,
0,
0,
0,
0,
0,
0,
0,
0,
0,
0,
0,
0,
0,
0,
0,
0,
0,
0,
0,
0,
0,
0,
0,
0,
0,
0,
0,
0,
0,
0,
0,
0,
0,
0,
0,
0,
0,
0,
0,
0,
0,
#ENDOFDATA   :

File: GMIIIA K240[2][4].msa
#FORMAT      : EMSA/MAS Spectral Data File
#VERSION     : 1.0
#TITLE       : GMIIIA K240[2][all]
#DATE        : 22-SEP-2025
#TIME        : 15:14
#OWNER       : Unknown
#NPOINTS     : 4096
#NCOLUMNS    : 1
#XUNITS      : eV
#YUNITS      : counts
#DATATYPE    : Y
#XPERCHAN    : 9.99778
#OFFSET      : 1.69135
#BEAMKV      : 15
#SIGNALTYPE  : EDS
#ELEVANGLE   : 35
#AZIMANGLE   : 0
#LIVETIME    : 239.956
#REALTIME    : 256.046
#PROBECUR    : 1.21732
#TAUWIND     : 0
#TDEADLYR    : 0
#TACTLYR     : 0.045
#TALWIND     : 0.025
#CHOFFSET    : 0.0
#XLABEL      : Energy (eV)
#YLABEL      : Counts
#XPOSITION   : 11.34826
#YPOSITION   : 1.68547
#ZPOSITION   : 37.36299
#EDSDET      : SD
##SPECIMEN   : GMIIIA K240[2][all]
##D2STDCMP   : K240,(O:34.0),(Mg:3.02),(Si:18.7),(Ti:6.0),(Zn:4.02),(Zr:7.4),(Ba:26.87)
##DET_HASH   : 12273538-fd48-a23f-0a19-f1e6fa85caef
##CALIB_HASH : 6abaa72c-aa41-8738-0be9-f592914732f3
##WORKING    : 15.0 mm
##DET_NAME   : EDAX All
##DET_MODE   : MediumLE
#SPECTRUM    :
20,
437,
9046,
13854,
63786,
5135,
5940,
14667,
5884,
23160,
5487,
6298,
44478,
23605,
6900,
15406,
5399,
3998,
4041,
3839,
3725,
3545,
3425,
3282,
3230,
3048,
2946,
2985,
3419,
2875,
2570,
4104,
37535,
3899,
6612,
9718,
3048,
5475,
2041,
2307,
2386,
1978,
1788,
1569,
1364,
1451,
1361,
1324,
1286,
1215,
1203,
1151,
1080,
1070,
1037,
962,
951,
942,
869,
891,
857,
1442,
1722,
706,
721,
653,
624,
648,
792,
653,
570,
501,
512,
482,
425,
436,
420,
396,
365,
356,
314,
312,
292,
288,
266,
237,
268,
212,
201,
197,
164,
147,
154,
136,
122,
128,
94,
95,
83,
60,
62,
42,
41,
20,
22,
16,
7,
2,
0,
1,
1,
0,
0,
1,
1,
1,
0,
0,
0,
1,
0,
0,
1,
0,
1,
1,
0,
1,
0,
0,
0,
0,
1,
0,
0,
0,
0,
0,
1,
0,
0,
0,
0,
0,
0,
2,
0,
1,
0,
0,
1,
0,
0,
0,
0,
0,
0,
0,
0,
0,
0,
0,
0,
0,
0,
0,
0,
0,
0,
0,
0,
0,
0,
0,
0,
0,
0,
0,
0,
0,
0,
0,
0,
0,
0,
0,
0,
0,
0,
0,
0,
0,
0,
0,
0,
0,
0,
0,
0,
0,
0,
0,
0,
0,
0,
0,
0,
0,
0,
0,
0,
0,
0,
0,
0,
0,
0,
0,
0,
0,
0,
0,
0,
0,
0,
0,
0,
0,
0,
0,
0,
0,
0,
0,
0,
0,
0,
0,
0,
0,
0,
0,
0,
0,
0,
0,
0,
0,
0,
0,
0,
0,
0,
0,
0,
0,
0,
0,
0,
0,
0,
0,
0,
0,
0,
0,
0,
0,
0,
0,
0,
0,
0,
0,
0,
0,
0,
0,
0,
0,
0,
0,
0,
0,
0,
0,
0,
0,
0,
0,
0,
0,
0,
0,
#ENDOFDATA   :

File: GMIIIA K240[3][4].msa
#FORMAT      : EMSA/MAS Spectral Data File
#VERSION     : 1.0
#TITLE       : GMIIIA K240[3][all]
#DATE        : 22-SEP-2025
#TIME        : 15:15
#OWNER       : Unknown
#NPOINTS     : 4096
#NCOLUMNS    : 1
#XUNITS      : eV
#YUNITS      : counts
#DATATYPE    : Y
#XPERCHAN    : 9.99778
#OFFSET      : 1.69135
#BEAMKV      : 15
#SIGNALTYPE  : EDS
#ELEVANGLE   : 35
#AZIMANGLE   : 0
#LIVETIME    : 239.948
#REALTIME    : 256.04
#PROBECUR    : 1.21732
#TAUWIND     : 0
#TDEADLYR    : 0
#TACTLYR     : 0.045
#TALWIND     : 0.025
#CHOFFSET    : 0.0
#XLABEL      : Energy (eV)
#YLABEL      : Counts
#XPOSITION   : 11.34409
#YPOSITION   : 1.68591
#ZPOSITION   : 37.36299
#EDSDET      : SD
##SPECIMEN   : GMIIIA K240[3][all]
##D2STDCMP   : K240,(O:34.0),(Mg:3.02),(Si:18.7),(Ti:6.0),(Zn:4.02),(Zr:7.4),(Ba:26.87)
##DET_HASH   : 12273538-fd48-a23f-0a19-f1e6fa85caef
##CALIB_HASH : 6abaa72c-aa41-8738-0be9-f592914732f3
##WORKING    : 15.0 mm
##DET_NAME   : EDAX All
##DET_MODE   : MediumLE
#SPECTRUM    :
31,
441,
8998,
13692,
64273,
5174,
6055,
14802,
5786,
23167,
5613,
6135,
44287,
23118,
6776,
15119,
5584,
3919,
3945,
3829,
3733,
3677,
3473,
3308,
3173,
3166,
2926,
2969,
3444,
2731,
2542,
4175,
37371,
3923,
6602,
9991,
2945,
5542,
1887,
2479,
2448,
1992,
1865,
1544,
1557,
1509,
1369,
1320,
1207,
1221,
1193,
1164,
1070,
1039,
1037,
998,
992,
882,
894,
894,
833,
1302,
1768,
785,
687,
683,
666,
640,
802,
605,
562,
554,
475,
464,
463,
407,
432,
385,
380,
401,
328,
332,
304,
254,
254,
252,
224,
192,
211,
165,
149,
141,
142,
136,
144,
113,
92,
74,
64,
55,
40,
50,
40,
28,
20,
16,
8,
6,
0,
1,
2,
0,
1,
0,
0,
0,
2,
0,
2,
1,
0,
1,
0,
1,
0,
1,
1,
0,
1,
0,
0,
0,
0,
0,
1,
0,
0,
0,
0,
0,
0,
0,
1,
1,
0,
0,
0,
0,
0,
0,
0,
0,
1,
0,
0,
0,
0,
0,
0,
0,
0,
0,
0,
0,
0,
0,
0,
0,
0,
0,
0,
0,
0,
0,
0,
0,
0,
0,
0,
0,
0,
0,
0,
0,
0,
0,
0,
0,
0,
0,
0,
0,
0,
0,
0,
0,
0,
0,
0,
0,
0,
0,
0,
0,
0,
0,
0,
0,
0,
0,
0,
0,
0,
0,
0,
0,
0,
0,
0,
0,
0,
0,
0,
0,
0,
0,
0,
0,
0,
0,
0,
0,
0,
0,
0,
0,
0,
0,
0,
0,
0,
0,
0,
0,
0,
0,
0,
0,
0,
0,
0,
0,
0,
0,
0,
0,
0,
0,
0,
0,
0,
0,
0,
0,
0,
0,
0,
0,
0,
0,
0,
0,
0,
0,
0,
0,
0,
0,
0,
0,
0,
0,
0,
0,
0,
0,
0,
0,
0,
0,
0,
0,
0,
0,
#ENDOFDATA   :

File: GMIIIA K240[4][4].msa
#FORMAT      : EMSA/MAS Spectral Data File
#VERSION     : 1.0
#TITLE       : GMIIIA K240[4][all]
#DATE        : 22-SEP-2025
#TIME        : 15:16
#OWNER       : Unknown
#NPOINTS     : 4096
#NCOLUMNS    : 1
#XUNITS      : eV
#YUNITS      : counts
#DATATYPE    : Y
#XPERCHAN    : 9.99778
#OFFSET      : 1.69135
#BEAMKV      : 15
#SIGNALTYPE  : EDS
#ELEVANGLE   : 35
#AZIMANGLE   : 0
#LIVETIME    : 239.955
#REALTIME    : 256.037
#PROBECUR    : 1.21681
#TAUWIND     : 0
#TDEADLYR    : 0
#TACTLYR     : 0.045
#TALWIND     : 0.025
#CHOFFSET    : 0.0
#XLABEL      : Energy (eV)
#YLABEL      : Counts
#XPOSITION   : 11.36031
#YPOSITION   : 1.6868
#ZPOSITION   : 37.36299
#EDSDET      : SD
##SPECIMEN   : GMIIIA K240[4][all]
##D2STDCMP   : K240,(O:34.0),(Mg:3.02),(Si:18.7),(Ti:6.0),(Zn:4.02),(Zr:7.4),(Ba:26.87)
##DET_HASH   : 12273538-fd48-a23f-0a19-f1e6fa85caef
##CALIB_HASH : 6abaa72c-aa41-8738-0be9-f592914732f3
##WORKING    : 15.0 mm
##DET_NAME   : EDAX All
##DET_MODE   : MediumLE
#SPECTRUM    :
36,
440,
9208,
13846,
63812,
5341,
5990,
14747,
5803,
23059,
5566,
6283,
44390,
23479,
6914,
14984,
5495,
3944,
4016,
3831,
3667,
3640,
3435,
3331,
3182,
3148,
3016,
2856,
3445,
2809,
2648,
4150,
36999,
3871,
6643,
9947,
3068,
5626,
1856,
2448,
2375,
1950,
1795,
1542,
1414,
1413,
1339,
1302,
1274,
1278,
1160,
1162,
1113,
1077,
1013,
1007,
989,
926,
894,
839,
827,
1359,
1708,
710,
710,
699,
694,
650,
787,
635,
560,
490,
546,
486,
467,
432,
414,
416,
390,
358,
333,
288,
303,
289,
274,
249,
229,
219,
173,
191,
186,
141,
148,
118,
127,
103,
82,
92,
82,
59,
51,
56,
43,
27,
23,
16,
5,
4,
2,
2,
1,
2,
3,
1,
0,
0,
0,
1,
0,
0,
2,
0,
1,
0,
0,
0,
0,
0,
1,
0,
0,
0,
2,
1,
0,
0,
0,
0,
0,
0,
0,
0,
0,
0,
0,
0,
0,
0,
0,
0,
0,
0,
0,
0,
0,
0,
0,
0,
0,
0,
0,
0,
0,
0,
0,
0,
0,
0,
0,
0,
0,
0,
0,
0,
0,
0,
0,
0,
0,
0,
0,
0,
0,
0,
0,
0,
0,
0,
0,
0,
0,
0,
0,
0,
0,
0,
0,
0,
0,
0,
0,
0,
0,
0,
0,
0,
0,
0,
0,
0,
0,
0,
0,
0,
0,
0,
0,
0,
0,
0,
0,
0,
0,
0,
0,
0,
0,
0,
0,
0,
0,
0,
0,
0,
0,
0,
0,
0,
0,
0,
0,
0,
0,
0,
0,
0,
0,
0,
0,
0,
0,
0,
0,
0,
0,
0,
0,
0,
0,
0,
0,
0,
0,
0,
0,
0,
0,
0,
0,
0,
0,
0,
0,
0,
0,
0,
0,
0,
0,
0,
0,
0,
0,
0,
0,
0,
0,
0,
0,
0,
0,
0,
0,
0,
#ENDOFDATA   :

File: GMIIIA K240[5][4].msa
#FORMAT      : EMSA/MAS Spectral Data File
#VERSION     : 1.0
#TITLE       : GMIIIA K240[5][all]
#DATE        : 22-SEP-2025
#TIME        : 15:18
#OWNER       : Unknown
#NPOINTS     : 4096
#NCOLUMNS    : 1
#XUNITS      : eV
#YUNITS      : counts
#DATATYPE    : Y
#XPERCHAN    : 9.99778
#OFFSET      : 1.69135
#BEAMKV      : 15
#SIGNALTYPE  : EDS
#ELEVANGLE   : 35
#AZIMANGLE   : 0
#LIVETIME    : 239.971
#REALTIME    : 256.043
#PROBECUR    : 1.21681
#TAUWIND     : 0
#TDEADLYR    : 0
#TACTLYR     : 0.045
#TALWIND     : 0.025
#CHOFFSET    : 0.0
#XLABEL      : Energy (eV)
#YLABEL      : Counts
#XPOSITION   : 11.34763
#YPOSITION   : 1.7116
#ZPOSITION   : 37.36299
#EDSDET      : SD
##SPECIMEN   : GMIIIA K240[5][all]
##D2STDCMP   : K240,(O:34.0),(Mg:3.02),(Si:18.7),(Ti:6.0),(Zn:4.02),(Zr:7.4),(Ba:26.87)
##DET_HASH   : 12273538-fd48-a23f-0a19-f1e6fa85caef
##CALIB_HASH : 6abaa72c-aa41-8738-0be9-f592914732f3
##WORKING    : 15.0 mm
##DET_NAME   : EDAX All
##DET_MODE   : MediumLE
#SPECTRUM    :
24,
408,
9438,
13720,
64156,
5343,
6137,
14803,
5673,
23148,
5491,
6384,
44154,
23234,
6918,
15250,
5440,
3966,
4008,
3743,
3663,
3604,
3400,
3159,
3147,
3064,
2973,
2862,
3436,
2739,
2557,
4188,
37262,
3833,
6463,
9711,
3039,
5436,
1954,
2477,
2396,
1980,
1864,
1525,
1446,
1449,
1338,
1346,
1220,
1308,
1155,
1146,
1093,
1039,
1003,
973,
934,
952,
918,
842,
850,
1385,
1710,
724,
683,
697,
633,
625,
751,
669,
560,
513,
535,
462,
502,
442,
394,
392,
378,
332,
322,
336,
303,
281,
251,
239,
243,
224,
161,
210,
160,
158,
173,
165,
122,
120,
91,
95,
74,
61,
67,
46,
33,
27,
22,
15,
10,
5,
1,
1,
0,
0,
0,
1,
0,
0,
0,
0,
3,
0,
0,
1,
0,
0,
1,
0,
2,
0,
1,
0,
0,
0,
0,
0,
1,
1,
1,
0,
0,
0,
0,
1,
0,
0,
0,
0,
0,
0,
0,
0,
0,
0,
0,
0,
0,
0,
0,
0,
0,
0,
0,
0,
0,
0,
0,
0,
0,
0,
0,
0,
0,
0,
0,
1,
0,
0,
0,
0,
0,
0,
0,
0,
0,
0,
0,
0,
0,
0,
0,
0,
0,
0,
0,
0,
0,
0,
0,
0,
0,
0,
0,
0,
0,
0,
0,
0,
0,
0,
0,
0,
0,
0,
0,
0,
0,
0,
0,
0,
0,
0,
0,
0,
0,
0,
0,
0,
0,
0,
0,
0,
0,
0,
0,
0,
0,
0,
0,
0,
0,
0,
0,
0,
0,
0,
0,
0,
0,
0,
0,
0,
0,
0,
0,
0,
0,
0,
0,
0,
0,
0,
0,
0,
0,
0,
0,
0,
0,
0,
0,
0,
0,
0,
0,
0,
0,
0,
0,
0,
0,
0,
0,
0,
0,
0,
0,
0,
0,
0,
0,
0,
0,
0,
0,
0,
#ENDOFDATA   :

File: GMIIIA K240[6][4].msa
#FORMAT      : EMSA/MAS Spectral Data File
#VERSION     : 1.0
#TITLE       : GMIIIA K240[6][all]
#DATE        : 22-SEP-2025
#TIME        : 15:19
#OWNER       : Unknown
#NPOINTS     : 4096
#NCOLUMNS    : 1
#XUNITS      : eV
#YUNITS      : counts
#DATATYPE    : Y
#XPERCHAN    : 9.99778
#OFFSET      : 1.69135
#BEAMKV      : 15
#SIGNALTYPE  : EDS
#ELEVANGLE   : 35
#AZIMANGLE   : 0
#LIVETIME    : 240.031
#REALTIME    : 256.104
#PROBECUR    : 1.21681
#TAUWIND     : 0
#TDEADLYR    : 0
#TACTLYR     : 0.045
#TALWIND     : 0.025
#CHOFFSET    : 0.0
#XLABEL      : Energy (eV)
#YLABEL      : Counts
#XPOSITION   : 11.35619
#YPOSITION   : 1.74097
#ZPOSITION   : 37.36299
#EDSDET      : SD
##SPECIMEN   : GMIIIA K240[6][all]
##D2STDCMP   : K240,(O:34.0),(Mg:3.02),(Si:18.7),(Ti:6.0),(Zn:4.02),(Zr:7.4),(Ba:26.87)
##DET_HASH   : 12273538-fd48-a23f-0a19-f1e6fa85caef
##CALIB_HASH : 6abaa72c-aa41-8738-0be9-f592914732f3
##WORKING    : 15.0 mm
##DET_NAME   : EDAX All
##DET_MODE   : MediumLE
#SPECTRUM    :
20,
422,
8973,
13981,
63568,
5110,
6115,
14608,
5961,
23077,
5566,
6317,
44477,
23087,
6885,
15315,
5422,
3963,
3995,
3867,
3676,
3528,
3403,
3275,
3140,
3101,
3011,
2908,
3392,
2834,
2570,
4192,
37650,
3791,
6576,
10062,
3074,
5512,
1956,
2379,
2407,
2026,
1752,
1566,
1514,
1394,
1438,
1386,
1221,
1260,
1148,
1109,
1111,
1051,
1006,
962,
980,
947,
898,
857,
870,
1410,
1737,
790,
676,
709,
649,
644,
719,
679,
519,
540,
487,
496,
468,
452,
420,
372,
396,
336,
326,
312,
300,
286,
253,
238,
230,
205,
182,
194,
183,
152,
158,
113,
129,
117,
97,
75,
89,
59,
65,
53,
36,
28,
15,
9,
12,
4,
1,
1,
2,
1,
2,
2,
0,
1,
0,
0,
0,
2,
0,
1,
0,
0,
0,
0,
0,
0,
0,
0,
0,
0,
1,
1,
0,
0,
1,
0,
0,
0,
0,
0,
0,
1,
0,
0,
0,
0,
0,
0,
0,
1,
0,
0,
0,
0,
0,
0,
0,
0,
0,
0,
0,
0,
0,
0,
0,
0,
0,
0,
0,
0,
0,
0,
0,
0,
0,
0,
0,
0,
0,
0,
0,
0,
0,
0,
0,
0,
0,
0,
0,
0,
0,
0,
0,
0,
0,
0,
0,
0,
0,
0,
0,
0,
0,
0,
0,
0,
0,
0,
0,
0,
0,
0,
0,
0,
0,
0,
0,
0,
0,
0,
0,
0,
0,
0,
0,
0,
0,
0,
0,
0,
0,
0,
0,
0,
0,
0,
0,
0,
0,
0,
0,
0,
0,
0,
0,
0,
0,
0,
0,
0,
0,
0,
0,
0,
0,
0,
0,
0,
0,
0,
0,
0,
0,
0,
0,
0,
0,
0,
0,
0,
0,
0,
0,
0,
0,
0,
0,
0,
0,
0,
0,
0,
0,
0,
0,
0,
0,
0,
0,
0,
0,
0,
#ENDOFDATA   :

File: GMIIIA K249[0][4].msa
#FORMAT      : EMSA/MAS Spectral Data File
#VERSION     : 1.0
#TITLE       : GMIIIA K249[0][all]
#DATE        : 22-SEP-2025
#TIME        : 15:04
#OWNER       : Unknown
#NPOINTS     : 4096
#NCOLUMNS    : 1
#XUNITS      : eV
#YUNITS      : counts
#DATATYPE    : Y
#XPERCHAN    : 9.99778
#OFFSET      : 1.69135
#BEAMKV      : 15
#SIGNALTYPE  : EDS
#ELEVANGLE   : 35
#AZIMANGLE   : 0
#LIVETIME    : 239.943
#REALTIME    : 258.929
#PROBECUR    : 1.21732
#TAUWIND     : 0
#TDEADLYR    : 0
#TACTLYR     : 0.045
#TALWIND     : 0.025
#CHOFFSET    : 0.0
#XLABEL      : Energy (eV)
#YLABEL      : Counts
#XPOSITION   : 9.11798
#YPOSITION   : 2.24556
#ZPOSITION   : 37.36299
#EDSDET      : SD
##SPECIMEN   : GMIIIA K249[0][all]
##D2STDCMP   : K249,(O:24.49),(Al:2.65),(Si:14.02),(Ba:8.96),(Ta:8.19),(Pb:39.45),(Bi:2.24)
##DET_HASH   : 12273538-fd48-a23f-0a19-f1e6fa85caef
##CALIB_HASH : 6abaa72c-aa41-8738-0be9-f592914732f3
##WORKING    : 15.0 mm
##DET_NAME   : EDAX All
##DET_MODE   : MediumLE
#SPECTRUM    :
30,
519,
11694,
9349,
42748,
7456,
7291,
7906,
7967,
8725,
10397,
16208,
58121,
30737,
7202,
6402,
10984,
67233,
15019,
8173,
4540,
4728,
5418,
4568,
4148,
4164,
4006,
3928,
4012,
3843,
3749,
4118,
11397,
3422,
4855,
5357,
3351,
4271,
2954,
3012,
2989,
2836,
2639,
2418,
2350,
2263,
2356,
2146,
2128,
2012,
2034,
2030,
1894,
1826,
1778,
1737,
1649,
1643,
2975,
1830,
1492,
1409,
1374,
1230,
1287,
1293,
1369,
1530,
1196,
1279,
1068,
1024,
918,
878,
914,
1432,
1064,
769,
757,
656,
660,
606,
579,
526,
485,
476,
424,
438,
414,
391,
447,
338,
303,
268,
240,
197,
207,
165,
134,
137,
113,
100,
83,
70,
49,
29,
26,
8,
4,
5,
3,
3,
0,
6,
1,
1,
0,
0,
3,
1,
0,
2,
1,
2,
2,
2,
0,
0,
2,
0,
1,
1,
0,
1,
0,
0,
0,
1,
1,
0,
0,
0,
0,
1,
0,
0,
2,
0,
0,
0,
0,
1,
0,
0,
0,
0,
0,
0,
0,
0,
0,
0,
0,
0,
0,
0,
0,
0,
0,
0,
0,
0,
0,
0,
0,
0,
0,
0,
0,
0,
0,
0,
0,
0,
0,
0,
0,
0,
0,
0,
0,
0,
0,
0,
0,
0,
0,
0,
0,
0,
0,
0,
0,
0,
0,
0,
0,
0,
0,
0,
0,
0,
0,
0,
0,
0,
0,
0,
0,
0,
0,
0,
0,
0,
0,
0,
0,
0,
0,
0,
0,
0,
0,
0,
0,
0,
0,
0,
0,
0,
0,
0,
0,
0,
0,
0,
0,
0,
0,
0,
0,
0,
0,
0,
0,
0,
0,
0,
0,
0,
0,
0,
0,
0,
0,
0,
0,
0,
0,
0,
0,
0,
0,
0,
0,
0,
0,
0,
0,
0,
0,
0,
0,
0,
0,
0,
0,
0,
0,
0,
0,
0,
0,
0,
#ENDOFDATA   :

File: GMIIIA K249[1][4].msa
#FORMAT      : EMSA/MAS Spectral Data File
#VERSION     : 1.0
#TITLE       : GMIIIA K249[1][all]
#DATE        : 22-SEP-2025
#TIME        : 15:05
#OWNER       : Unknown
#NPOINTS     : 4096
#NCOLUMNS    : 1
#XUNITS      : eV
#YUNITS      : counts
#DATATYPE    : Y
#XPERCHAN    : 9.99778
#OFFSET      : 1.69135
#BEAMKV      : 15
#SIGNALTYPE  : EDS
#ELEVANGLE   : 35
#AZIMANGLE   : 0
#LIVETIME    : 239.944
#REALTIME    : 258.919
#PROBECUR    : 1.21732
#TAUWIND     : 0
#TDEADLYR    : 0
#TACTLYR     : 0.045
#TALWIND     : 0.025
#CHOFFSET    : 0.0
#XLABEL      : Energy (eV)
#YLABEL      : Counts
#XPOSITION   : 9.13831
#YPOSITION   : 2.23338
#ZPOSITION   : 37.36299
#EDSDET      : SD
##SPECIMEN   : GMIIIA K249[1][all]
##D2STDCMP   : K249,(O:24.49),(Al:2.65),(Si:14.02),(Ba:8.96),(Ta:8.19),(Pb:39.45),(Bi:2.24)
##DET_HASH   : 12273538-fd48-a23f-0a19-f1e6fa85caef
##CALIB_HASH : 6abaa72c-aa41-8738-0be9-f592914732f3
##WORKING    : 15.0 mm
##DET_NAME   : EDAX All
##DET_MODE   : MediumLE
#SPECTRUM    :
24,
547,
11608,
9319,
42673,
7405,
7282,
8038,
7851,
8616,
10334,
16399,
58212,
30483,
7218,
6359,
11139,
67678,
14889,
8141,
4613,
4784,
5329,
4386,
4168,
4262,
3889,
3871,
4107,
3793,
3716,
4118,
11389,
3526,
4771,
5576,
3494,
4220,
3018,
3010,
2964,
2768,
2633,
2553,
2357,
2335,
2297,
2209,
2106,
2079,
1977,
1981,
2009,
1873,
1833,
1691,
1813,
1701,
2922,
1806,
1425,
1384,
1303,
1301,
1297,
1261,
1375,
1460,
1207,
1243,
1040,
986,
937,
909,
911,
1484,
1062,
830,
803,
693,
669,
587,
525,
576,
534,
489,
449,
444,
392,
398,
438,
351,
310,
285,
219,
202,
188,
184,
164,
137,
129,
119,
94,
79,
60,
38,
30,
8,
1,
3,
3,
1,
2,
2,
4,
2,
0,
1,
0,
0,
3,
0,
1,
1,
3,
3,
0,
0,
1,
1,
0,
1,
1,
0,
0,
0,
0,
0,
1,
0,
1,
1,
0,
0,
0,
0,
0,
1,
0,
0,
1,
0,
0,
0,
0,
0,
1,
1,
0,
1,
0,
0,
0,
0,
0,
0,
0,
0,
0,
0,
0,
0,
0,
0,
0,
0,
0,
0,
0,
0,
0,
0,
0,
0,
0,
0,
0,
0,
0,
0,
0,
0,
0,
0,
0,
0,
0,
0,
0,
0,
0,
0,
0,
0,
0,
0,
0,
0,
0,
0,
0,
0,
0,
0,
0,
0,
0,
0,
0,
0,
0,
0,
0,
0,
0,
0,
0,
0,
0,
0,
0,
0,
0,
0,
0,
0,
0,
0,
0,
0,
0,
0,
0,
0,
0,
0,
0,
0,
0,
0,
0,
0,
0,
0,
0,
0,
0,
0,
0,
0,
0,
0,
0,
0,
0,
0,
0,
0,
0,
0,
0,
0,
0,
0,
0,
0,
0,
0,
0,
0,
0,
0,
0,
0,
0,
0,
0,
0,
0,
0,
0,
0,
0,
0,
#ENDOFDATA   :

File: GMIIIA K249[2][4].msa
#FORMAT      : EMSA/MAS Spectral Data File
#VERSION     : 1.0
#TITLE       : GMIIIA K249[2][all]
#DATE        : 22-SEP-2025
#TIME        : 15:06
#OWNER       : Unknown
#NPOINTS     : 4096
#NCOLUMNS    : 1
#XUNITS      : eV
#YUNITS      : counts
#DATATYPE    : Y
#XPERCHAN    : 9.99778
#OFFSET      : 1.69135
#BEAMKV      : 15
#SIGNALTYPE  : EDS
#ELEVANGLE   : 35
#AZIMANGLE   : 0
#LIVETIME    : 239.927
#REALTIME    : 258.919
#PROBECUR    : 1.21732
#TAUWIND     : 0
#TDEADLYR    : 0
#TACTLYR     : 0.045
#TALWIND     : 0.025
#CHOFFSET    : 0.0
#XLABEL      : Energy (eV)
#YLABEL      : Counts
#XPOSITION   : 9.12459
#YPOSITION   : 2.17197
#ZPOSITION   : 37.36299
#EDSDET      : SD
##SPECIMEN   : GMIIIA K249[2][all]
##D2STDCMP   : K249,(O:24.49),(Al:2.65),(Si:14.02),(Ba:8.96),(Ta:8.19),(Pb:39.45),(Bi:2.24)
##DET_HASH   : 12273538-fd48-a23f-0a19-f1e6fa85caef
##CALIB_HASH : 6abaa72c-aa41-8738-0be9-f592914732f3
##WORKING    : 15.0 mm
##DET_NAME   : EDAX All
##DET_MODE   : MediumLE
#SPECTRUM    :
23,
527,
11758,
9211,
42656,
7398,
7166,
8008,
7819,
8593,
10246,
16278,
58091,
30617,
7215,
6368,
10904,
67199,
15068,
8319,
4585,
4827,
5351,
4426,
4234,
4272,
4046,
3824,
4071,
3724,
3730,
4040,
11301,
3571,
4785,
5276,
3461,
4263,
2939,
3095,
3005,
2815,
2597,
2468,
2378,
2405,
2307,
2261,
2130,
2164,
1954,
2115,
1993,
1841,
1804,
1712,
1657,
1663,
2981,
1690,
1446,
1452,
1345,
1287,
1267,
1177,
1412,
1493,
1172,
1220,
1057,
987,
857,
925,
895,
1496,
1128,
789,
706,
627,
636,
593,
537,
547,
481,
471,
460,
435,
384,
393,
424,
331,
277,
281,
231,
210,
198,
194,
145,
113,
125,
109,
90,
74,
50,
36,
26,
7,
5,
5,
2,
4,
0,
4,
1,
1,
2,
1,
0,
0,
0,
2,
2,
0,
1,
3,
3,
1,
1,
0,
0,
0,
2,
1,
2,
0,
1,
0,
0,
0,
0,
0,
0,
1,
0,
0,
1,
1,
1,
0,
1,
0,
0,
0,
0,
1,
0,
0,
0,
1,
0,
0,
0,
0,
0,
0,
0,
0,
0,
0,
0,
0,
0,
0,
0,
0,
0,
0,
0,
0,
0,
0,
0,
0,
0,
0,
0,
0,
0,
0,
0,
0,
0,
0,
0,
0,
0,
0,
0,
0,
0,
0,
0,
0,
0,
0,
0,
0,
0,
0,
0,
0,
0,
0,
0,
0,
0,
0,
0,
0,
0,
0,
0,
0,
1,
0,
0,
0,
0,
0,
0,
0,
0,
0,
0,
0,
0,
0,
0,
0,
0,
0,
0,
0,
0,
0,
0,
0,
0,
0,
0,
0,
0,
0,
0,
0,
0,
0,
0,
0,
0,
0,
0,
0,
0,
0,
0,
0,
0,
0,
0,
0,
0,
0,
0,
0,
0,
0,
0,
0,
0,
0,
0,
0,
0,
0,
0,
0,
0,
0,
0,
0,
0,
0,
#ENDOFDATA   :

File: GMIIIA K249[3][4].msa
#FORMAT      : EMSA/MAS Spectral Data File
#VERSION     : 1.0
#TITLE       : GMIIIA K249[3][all]
#DATE        : 22-SEP-2025
#TIME        : 15:07
#OWNER       : Unknown
#NPOINTS     : 4096
#NCOLUMNS    : 1
#XUNITS      : eV
#YUNITS      : counts
#DATATYPE    : Y
#XPERCHAN    : 9.99778
#OFFSET      : 1.69135
#BEAMKV      : 15
#SIGNALTYPE  : EDS
#ELEVANGLE   : 35
#AZIMANGLE   : 0
#LIVETIME    : 239.968
#REALTIME    : 258.854
#PROBECUR    : 1.21732
#TAUWIND     : 0
#TDEADLYR    : 0
#TACTLYR     : 0.045
#TALWIND     : 0.025
#CHOFFSET    : 0.0
#XLABEL      : Energy (eV)
#YLABEL      : Counts
#XPOSITION   : 9.16395
#YPOSITION   : 2.29314
#ZPOSITION   : 37.36299
#EDSDET      : SD
##SPECIMEN   : GMIIIA K249[3][all]
##D2STDCMP   : K249,(O:24.49),(Al:2.65),(Si:14.02),(Ba:8.96),(Ta:8.19),(Pb:39.45),(Bi:2.24)
##DET_HASH   : 12273538-fd48-a23f-0a19-f1e6fa85caef
##CALIB_HASH : 6abaa72c-aa41-8738-0be9-f592914732f3
##WORKING    : 15.0 mm
##DET_NAME   : EDAX All
##DET_MODE   : MediumLE
#SPECTRUM    :
37,
560,
12168,
9268,
41685,
7250,
7067,
7783,
7866,
8529,
10312,
16228,
57092,
30035,
7055,
6494,
11163,
66741,
15074,
8571,
4813,
5801,
5752,
4752,
4296,
4216,
4052,
3905,
4068,
3785,
3746,
4003,
11268,
3506,
4690,
5125,
3268,
4246,
2835,
2937,
2997,
2941,
2626,
2424,
2323,
2468,
2399,
2209,
2242,
2053,
1952,
1968,
1895,
1844,
1778,
1705,
1664,
1685,
2942,
1831,
1390,
1376,
1289,
1308,
1253,
1310,
1386,
1416,
1162,
1356,
1105,
876,
894,
888,
895,
1471,
1074,
764,
780,
660,
664,
643,
577,
569,
512,
506,
441,
446,
385,
402,
483,
318,
295,
279,
247,
232,
207,
179,
175,
118,
138,
102,
101,
60,
59,
36,
22,
6,
5,
3,
4,
3,
2,
2,
2,
2,
0,
0,
0,
1,
1,
2,
0,
1,
0,
0,
1,
1,
0,
1,
1,
1,
1,
0,
0,
2,
1,
0,
0,
0,
0,
0,
1,
0,
0,
0,
0,
0,
0,
1,
0,
0,
0,
0,
0,
0,
0,
0,
0,
1,
0,
0,
0,
0,
0,
1,
0,
0,
1,
0,
0,
0,
0,
0,
0,
0,
0,
0,
1,
0,
0,
0,
0,
0,
0,
0,
1,
0,
0,
0,
0,
0,
0,
0,
0,
0,
0,
0,
0,
0,
0,
0,
0,
0,
0,
0,
0,
0,
0,
0,
0,
0,
0,
0,
0,
0,
0,
0,
0,
0,
0,
0,
0,
0,
0,
0,
0,
0,
0,
0,
0,
0,
0,
0,
0,
0,
0,
0,
0,
0,
0,
0,
0,
0,
0,
0,
0,
0,
0,
0,
0,
0,
0,
0,
0,
0,
0,
0,
0,
0,
0,
0,
0,
0,
0,
0,
0,
0,
0,
0,
0,
0,
0,
0,
0,
0,
0,
0,
0,
0,
0,
0,
0,
0,
0,
0,
0,
0,
0,
0,
0,
0,
0,
0,
#ENDOFDATA   :

File: GMIIIA K249[4][4].msa
#FORMAT      : EMSA/MAS Spectral Data File
#VERSION     : 1.0
#TITLE       : GMIIIA K249[4][all]
#DATE        : 22-SEP-2025
#TIME        : 15:08
#OWNER       : Unknown
#NPOINTS     : 4096
#NCOLUMNS    : 1
#XUNITS      : eV
#YUNITS      : counts
#DATATYPE    : Y
#XPERCHAN    : 9.99778
#OFFSET      : 1.69135
#BEAMKV      : 15
#SIGNALTYPE  : EDS
#ELEVANGLE   : 35
#AZIMANGLE   : 0
#LIVETIME    : 240.064
#REALTIME    : 259.047
#PROBECUR    : 1.21732
#TAUWIND     : 0
#TDEADLYR    : 0
#TACTLYR     : 0.045
#TALWIND     : 0.025
#CHOFFSET    : 0.0
#XLABEL      : Energy (eV)
#YLABEL      : Counts
#XPOSITION   : 9.16812
#YPOSITION   : 2.31465
#ZPOSITION   : 37.36299
#EDSDET      : SD
##SPECIMEN   : GMIIIA K249[4][all]
##D2STDCMP   : K249,(O:24.49),(Al:2.65),(Si:14.02),(Ba:8.96),(Ta:8.19),(Pb:39.45),(Bi:2.24)
##DET_HASH   : 12273538-fd48-a23f-0a19-f1e6fa85caef
##CALIB_HASH : 6abaa72c-aa41-8738-0be9-f592914732f3
##WORKING    : 15.0 mm
##DET_NAME   : EDAX All
##DET_MODE   : MediumLE
#SPECTRUM    :
29,
563,
11946,
9176,
42518,
7548,
7223,
7991,
7894,
8496,
10367,
16196,
58627,
30421,
7206,
6442,
10960,
67742,
14871,
8069,
4500,
4848,
5379,
4520,
4211,
4187,
4088,
3940,
3988,
3874,
3678,
4017,
11423,
3466,
4777,
5554,
3369,
4243,
2866,
2984,
2956,
2799,
2653,
2506,
2458,
2311,
2365,
2225,
2113,
2097,
1993,
1936,
1925,
1879,
1707,
1733,
1704,
1650,
2846,
1703,
1462,
1470,
1359,
1294,
1293,
1228,
1409,
1536,
1166,
1328,
1073,
986,
929,
860,
926,
1389,
1057,
795,
765,
684,
671,
619,
581,
518,
518,
453,
431,
438,
441,
413,
473,
340,
310,
286,
278,
213,
217,
168,
162,
154,
129,
106,
92,
66,
50,
31,
16,
5,
2,
4,
3,
3,
1,
2,
0,
2,
1,
1,
1,
1,
0,
2,
3,
2,
0,
1,
2,
3,
3,
1,
0,
2,
1,
2,
0,
1,
0,
1,
0,
1,
0,
0,
0,
0,
0,
0,
0,
0,
0,
1,
0,
0,
0,
1,
0,
0,
0,
0,
0,
0,
0,
0,
0,
0,
0,
0,
0,
0,
0,
0,
0,
0,
0,
0,
0,
1,
1,
0,
0,
0,
0,
0,
0,
0,
0,
0,
0,
0,
0,
0,
0,
0,
0,
0,
0,
0,
0,
0,
0,
0,
0,
0,
0,
0,
0,
0,
0,
0,
0,
0,
0,
0,
0,
0,
0,
0,
0,
0,
0,
0,
0,
0,
0,
0,
0,
0,
0,
0,
0,
0,
0,
0,
0,
0,
0,
0,
0,
0,
0,
0,
0,
0,
0,
0,
0,
0,
0,
0,
0,
0,
0,
0,
0,
0,
0,
0,
0,
0,
0,
0,
0,
0,
0,
0,
0,
0,
0,
0,
0,
0,
0,
0,
0,
0,
0,
0,
0,
0,
0,
0,
0,
0,
0,
0,
0,
0,
0,
0,
0,
0,
0,
0,
0,
0,
#ENDOFDATA   :