Folder: spex_quant/N132962/Quantification/15 keV/Mengason MM2 (part 2)

File: MMM2 MgAl2O4[1][4].msa
#FORMAT      : EMSA/MAS Spectral Data File
#VERSION     : 1.0
#TITLE       : MMM2 MgAl2O4[1][all]
#DATE        : 28-SEP-2025
#TIME        : 21:18
#OWNER       : Unknown
#NPOINTS     : 4096
#NCOLUMNS    : 1
#XUNITS      : eV
#YUNITS      : counts
#DATATYPE    : Y
#XPERCHAN    : 9.99778
#OFFSET      : 1.69135
#BEAMKV      : 15
#SIGNALTYPE  : EDS
#ELEVANGLE   : 35
#AZIMANGLE   : 0
#LIVETIME    : 240.37
#REALTIME    : 258.853
#PROBECUR    : 1.21217
#TAUWIND     : 0
#TDEADLYR    : 0
#TACTLYR     : 0.045
#TALWIND     : 0.025
#CHOFFSET    : 0.0
#XLABEL      : Energy (eV)
#YLABEL      : Counts
#XPOSITION   : -21.73566
#YPOSITION   : -2.74463
#ZPOSITION   : 34.11879
#EDSDET      : SD
##SPECIMEN   : MMM2 MgAl2O4[1][all]
##D2STDCMP   : MgAl2O4,(O:44.9839),(Mg:17.0844),(Al:37.9316)
##DET_HASH   : 12273538-fd48-a23f-0a19-f1e6fa85caef
##CALIB_HASH : 6abaa72c-aa41-8738-0be9-f592914732f3
##WORKING    : 15.0 mm
##DET_NAME   : EDAX All
##DET_MODE   : MediumLE
#SPECTRUM    :
23,
256,
11163,
10382,
95819,
2978,
3835,
4926,
6382,
160762,
21763,
96401,
2767,
2807,
3005,
2360,
2274,
2323,
2325,
2198,
2200,
2317,
1845,
1743,
1651,
1688,
1532,
1470,
1351,
1308,
1275,
1193,
1177,
1101,
1072,
1049,
946,
925,
901,
893,
816,
819,
784,
725,
704,
729,
680,
604,
616,
549,
565,
486,
511,
442,
421,
457,
425,
406,
401,
371,
359,
352,
325,
322,
298,
288,
280,
268,
234,
254,
229,
219,
196,
189,
202,
158,
167,
173,
149,
119,
141,
121,
120,
93,
74,
121,
85,
69,
98,
64,
60,
60,
54,
41,
47,
36,
20,
25,
39,
22,
13,
19,
16,
6,
10,
11,
4,
1,
1,
0,
0,
0,
0,
0,
0,
0,
0,
0,
0,
0,
0,
0,
0,
0,
0,
0,
0,
0,
0,
1,
0,
0,
0,
0,
0,
1,
0,
0,
0,
0,
0,
0,
0,
0,
0,
0,
0,
0,
0,
0,
0,
0,
0,
1,
0,
0,
0,
0,
0,
1,
0,
0,
0,
0,
0,
0,
0,
0,
0,
0,
0,
0,
0,
0,
0,
0,
0,
0,
0,
0,
0,
0,
0,
0,
0,
0,
0,
0,
0,
0,
0,
0,
0,
0,
0,
0,
0,
0,
0,
0,
0,
0,
0,
0,
0,
0,
0,
0,
0,
0,
0,
0,
0,
0,
0,
0,
0,
0,
0,
0,
0,
0,
0,
0,
0,
0,
0,
0,
0,
0,
0,
0,
0,
0,
0,
0,
0,
0,
0,
0,
0,
0,
0,
0,
0,
0,
0,
0,
0,
0,
0,
0,
0,
0,
0,
0,
0,
0,
0,
0,
0,
0,
0,
0,
0,
0,
0,
0,
0,
0,
0,
0,
0,
0,
0,
0,
0,
0,
0,
0,
0,
0,
0,
0,
0,
0,
0,
0,
0,
0,
0,
0,
0,
0,
#ENDOFDATA   :

File: MMM2 MgAl2O4[3][4].msa
#FORMAT      : EMSA/MAS Spectral Data File
#VERSION     : 1.0
#TITLE       : MMM2 MgAl2O4[3][all]
#DATE        : 28-SEP-2025
#TIME        : 21:20
#OWNER       : Unknown
#NPOINTS     : 4096
#NCOLUMNS    : 1
#XUNITS      : eV
#YUNITS      : counts
#DATATYPE    : Y
#XPERCHAN    : 9.99778
#OFFSET      : 1.69135
#BEAMKV      : 15
#SIGNALTYPE  : EDS
#ELEVANGLE   : 35
#AZIMANGLE   : 0
#LIVETIME    : 240.687
#REALTIME    : 259.244
#PROBECUR    : 1.21217
#TAUWIND     : 0
#TDEADLYR    : 0
#TACTLYR     : 0.045
#TALWIND     : 0.025
#CHOFFSET    : 0.0
#XLABEL      : Energy (eV)
#YLABEL      : Counts
#XPOSITION   : -21.69949
#YPOSITION   : -2.76975
#ZPOSITION   : 34.11879
#EDSDET      : SD
##SPECIMEN   : MMM2 MgAl2O4[3][all]
##D2STDCMP   : MgAl2O4,(O:44.9839),(Mg:17.0844),(Al:37.9316)
##DET_HASH   : 12273538-fd48-a23f-0a19-f1e6fa85caef
##CALIB_HASH : 6abaa72c-aa41-8738-0be9-f592914732f3
##WORKING    : 15.0 mm
##DET_NAME   : EDAX All
##DET_MODE   : MediumLE
#SPECTRUM    :
32,
267,
11328,
10294,
95471,
3076,
3806,
4902,
6413,
161316,
21789,
96314,
2689,
2956,
2982,
2453,
2338,
2233,
2335,
2209,
2256,
2303,
1827,
1706,
1760,
1616,
1540,
1518,
1430,
1322,
1322,
1226,
1181,
1161,
1132,
980,
1024,
954,
979,
841,
845,
801,
786,
719,
725,
670,
705,
615,
576,
563,
564,
501,
515,
514,
460,
447,
461,
432,
407,
372,
343,
364,
345,
306,
292,
303,
289,
251,
269,
223,
245,
205,
223,
191,
186,
162,
168,
170,
161,
139,
128,
129,
108,
131,
111,
92,
88,
79,
75,
78,
66,
61,
47,
42,
55,
40,
35,
29,
19,
20,
25,
12,
11,
15,
4,
5,
1,
1,
0,
0,
0,
0,
0,
0,
0,
0,
0,
0,
0,
0,
0,
0,
0,
0,
0,
0,
0,
0,
0,
1,
0,
0,
0,
0,
0,
0,
0,
0,
0,
1,
0,
0,
0,
0,
0,
0,
0,
0,
0,
0,
0,
0,
0,
0,
0,
0,
0,
0,
0,
0,
0,
0,
0,
0,
0,
0,
0,
0,
0,
0,
0,
0,
0,
0,
0,
0,
0,
0,
0,
0,
0,
0,
0,
0,
0,
0,
0,
0,
0,
0,
0,
0,
0,
0,
0,
0,
0,
0,
0,
0,
0,
0,
0,
0,
0,
0,
0,
0,
0,
0,
0,
0,
0,
0,
0,
0,
0,
0,
0,
0,
0,
0,
0,
0,
0,
0,
0,
0,
0,
0,
0,
0,
0,
0,
0,
0,
0,
0,
0,
0,
0,
0,
0,
0,
0,
0,
0,
0,
0,
0,
0,
0,
0,
0,
0,
0,
0,
0,
0,
0,
0,
0,
0,
0,
0,
0,
0,
0,
0,
0,
0,
0,
0,
0,
0,
0,
0,
0,
0,
0,
0,
0,
0,
0,
0,
0,
0,
0,
0,
0,
0,
0,
0,
0,
#ENDOFDATA   :

File: MMM2 MgAl2O4[5][4].msa
#FORMAT      : EMSA/MAS Spectral Data File
#VERSION     : 1.0
#TITLE       : MMM2 MgAl2O4[5][all]
#DATE        : 28-SEP-2025
#TIME        : 21:23
#OWNER       : Unknown
#NPOINTS     : 4096
#NCOLUMNS    : 1
#XUNITS      : eV
#YUNITS      : counts
#DATATYPE    : Y
#XPERCHAN    : 9.99778
#OFFSET      : 1.69135
#BEAMKV      : 15
#SIGNALTYPE  : EDS
#ELEVANGLE   : 35
#AZIMANGLE   : 0
#LIVETIME    : 240.396
#REALTIME    : 258.927
#PROBECUR    : 1.21217
#TAUWIND     : 0
#TDEADLYR    : 0
#TACTLYR     : 0.045
#TALWIND     : 0.025
#CHOFFSET    : 0.0
#XLABEL      : Energy (eV)
#YLABEL      : Counts
#XPOSITION   : -21.66677
#YPOSITION   : -2.711
#ZPOSITION   : 34.11879
#EDSDET      : SD
##SPECIMEN   : MMM2 MgAl2O4[5][all]
##D2STDCMP   : MgAl2O4,(O:44.9839),(Mg:17.0844),(Al:37.9316)
##DET_HASH   : 12273538-fd48-a23f-0a19-f1e6fa85caef
##CALIB_HASH : 6abaa72c-aa41-8738-0be9-f592914732f3
##WORKING    : 15.0 mm
##DET_NAME   : EDAX All
##DET_MODE   : MediumLE
#SPECTRUM    :
23,
246,
11296,
10418,
95314,
3081,
3990,
4867,
6302,
161222,
21816,
96141,
2651,
2910,
2978,
2418,
2336,
2276,
2374,
2165,
2279,
2383,
1833,
1686,
1731,
1581,
1536,
1548,
1454,
1356,
1253,
1296,
1146,
1174,
1094,
1059,
995,
952,
917,
952,
817,
789,
745,
766,
698,
683,
662,
637,
582,
534,
597,
540,
475,
442,
440,
447,
443,
443,
409,
403,
382,
386,
352,
327,
289,
258,
272,
289,
230,
246,
220,
213,
195,
204,
174,
168,
159,
133,
163,
115,
132,
111,
123,
106,
102,
94,
92,
82,
74,
54,
64,
54,
46,
52,
45,
33,
28,
23,
24,
24,
18,
14,
8,
9,
12,
7,
2,
1,
0,
0,
0,
0,
0,
0,
1,
0,
0,
0,
0,
0,
0,
0,
0,
0,
0,
0,
0,
0,
0,
0,
1,
0,
0,
0,
0,
0,
0,
0,
0,
0,
0,
0,
0,
0,
0,
0,
0,
0,
0,
0,
0,
0,
0,
0,
0,
0,
0,
0,
0,
0,
0,
0,
0,
0,
0,
0,
0,
0,
0,
0,
0,
0,
0,
0,
0,
0,
0,
0,
0,
0,
0,
0,
0,
0,
0,
0,
0,
0,
0,
0,
0,
0,
0,
0,
0,
0,
0,
0,
0,
0,
0,
0,
0,
0,
0,
0,
0,
0,
0,
0,
0,
0,
0,
0,
0,
0,
0,
0,
0,
0,
0,
0,
0,
0,
0,
0,
0,
0,
0,
0,
0,
0,
0,
0,
0,
0,
0,
0,
0,
0,
0,
0,
0,
0,
0,
0,
0,
0,
0,
0,
0,
0,
0,
0,
0,
0,
0,
0,
0,
0,
0,
0,
0,
0,
0,
0,
0,
0,
0,
0,
0,
0,
0,
0,
0,
0,
0,
0,
0,
0,
0,
0,
0,
0,
0,
0,
0,
0,
0,
0,
0,
0,
0,
0,
#ENDOFDATA   :

File: MMM2 MgAl2O4[8][4].msa
#FORMAT      : EMSA/MAS Spectral Data File
#VERSION     : 1.0
#TITLE       : MMM2 MgAl2O4[8][all]
#DATE        : 28-SEP-2025
#TIME        : 21:26
#OWNER       : Unknown
#NPOINTS     : 4096
#NCOLUMNS    : 1
#XUNITS      : eV
#YUNITS      : counts
#DATATYPE    : Y
#XPERCHAN    : 9.99778
#OFFSET      : 1.69135
#BEAMKV      : 15
#SIGNALTYPE  : EDS
#ELEVANGLE   : 35
#AZIMANGLE   : 0
#LIVETIME    : 240.328
#REALTIME    : 258.816
#PROBECUR    : 1.21217
#TAUWIND     : 0
#TDEADLYR    : 0
#TACTLYR     : 0.045
#TALWIND     : 0.025
#CHOFFSET    : 0.0
#XLABEL      : Energy (eV)
#YLABEL      : Counts
#XPOSITION   : -21.70334
#YPOSITION   : -2.79956
#ZPOSITION   : 34.11879
#EDSDET      : SD
##SPECIMEN   : MMM2 MgAl2O4[8][all]
##D2STDCMP   : MgAl2O4,(O:44.9839),(Mg:17.0844),(Al:37.9316)
##DET_HASH   : 12273538-fd48-a23f-0a19-f1e6fa85caef
##CALIB_HASH : 6abaa72c-aa41-8738-0be9-f592914732f3
##WORKING    : 15.0 mm
##DET_NAME   : EDAX All
##DET_MODE   : MediumLE
#SPECTRUM    :
21,
239,
11208,
10237,
95523,
3055,
3842,
4942,
6570,
160416,
21709,
95986,
2612,
2930,
2993,
2443,
2224,
2326,
2312,
2231,
2224,
2300,
1864,
1776,
1623,
1577,
1543,
1477,
1427,
1329,
1314,
1265,
1249,
1135,
1110,
1060,
1018,
981,
938,
866,
860,
820,
776,
707,
706,
713,
679,
633,
575,
605,
552,
551,
475,
487,
450,
398,
429,
392,
407,
362,
325,
353,
336,
301,
278,
267,
243,
260,
256,
236,
205,
198,
190,
164,
203,
171,
159,
163,
156,
131,
114,
95,
112,
106,
86,
97,
89,
74,
90,
65,
69,
55,
44,
46,
41,
35,
27,
39,
31,
26,
16,
15,
8,
15,
11,
5,
8,
2,
0,
0,
0,
0,
0,
0,
0,
0,
0,
0,
0,
0,
0,
0,
0,
0,
0,
0,
0,
0,
0,
0,
0,
0,
0,
0,
0,
0,
0,
0,
0,
0,
0,
0,
0,
0,
0,
0,
0,
0,
0,
0,
0,
0,
0,
0,
0,
0,
1,
0,
0,
0,
0,
0,
0,
0,
0,
0,
0,
0,
0,
0,
0,
0,
0,
0,
0,
0,
0,
0,
0,
0,
0,
0,
0,
0,
0,
0,
0,
0,
0,
0,
0,
0,
0,
0,
0,
0,
0,
0,
0,
0,
0,
0,
0,
0,
0,
0,
0,
0,
0,
0,
0,
0,
0,
0,
0,
0,
0,
0,
0,
0,
0,
0,
0,
0,
0,
0,
0,
0,
0,
0,
0,
0,
0,
0,
0,
0,
0,
0,
0,
0,
0,
0,
0,
0,
0,
0,
0,
0,
0,
0,
0,
0,
0,
0,
0,
0,
0,
0,
0,
0,
0,
0,
0,
0,
0,
0,
0,
0,
0,
0,
0,
0,
0,
0,
0,
0,
0,
0,
0,
0,
0,
0,
0,
0,
0,
0,
0,
0,
0,
0,
0,
0,
0,
0,
#ENDOFDATA   :

File: MMM2 Olivine[0][4].msa
#FORMAT      : EMSA/MAS Spectral Data File
#VERSION     : 1.0
#TITLE       : MMM2 Olivine[0][all]
#DATE        : 28-SEP-2025
#TIME        : 23:01
#OWNER       : Unknown
#NPOINTS     : 4096
#NCOLUMNS    : 1
#XUNITS      : eV
#YUNITS      : counts
#DATATYPE    : Y
#XPERCHAN    : 9.99778
#OFFSET      : 1.69135
#BEAMKV      : 15
#SIGNALTYPE  : EDS
#ELEVANGLE   : 35
#AZIMANGLE   : 0
#LIVETIME    : 240.319
#REALTIME    : 258.15
#PROBECUR    : 1.2132
#TAUWIND     : 0
#TDEADLYR    : 0
#TACTLYR     : 0.045
#TALWIND     : 0.025
#CHOFFSET    : 0.0
#XLABEL      : Energy (eV)
#YLABEL      : Counts
#XPOSITION   : -21.30641
#YPOSITION   : 2.48524
#ZPOSITION   : 34.11879
#EDSDET      : SD
##SPECIMEN   : MMM2 Olivine[0][all]
##DET_HASH   : 12273538-fd48-a23f-0a19-f1e6fa85caef
##CALIB_HASH : 6abaa72c-aa41-8738-0be9-f592914732f3
##WORKING    : 15.0 mm
##DET_NAME   : EDAX All
##DET_MODE   : MediumLE
#SPECTRUM    :
30,
288,
11864,
10462,
93197,
10569,
4674,
4786,
7138,
261425,
3625,
3829,
40742,
20146,
2523,
2479,
3012,
2426,
2698,
2257,
2161,
2244,
2111,
1848,
1832,
1847,
1733,
1614,
1541,
1481,
1403,
1317,
1263,
1236,
1229,
1090,
1125,
1070,
967,
942,
944,
882,
961,
796,
817,
2219,
5193,
726,
661,
636,
1147,
791,
522,
617,
567,
518,
465,
431,
430,
470,
389,
361,
354,
312,
330,
324,
281,
281,
269,
225,
237,
242,
233,
218,
200,
180,
186,
176,
170,
177,
147,
129,
135,
115,
108,
102,
108,
91,
82,
63,
74,
60,
56,
57,
57,
50,
25,
26,
37,
26,
21,
22,
13,
9,
5,
4,
3,
2,
0,
0,
1,
0,
0,
0,
0,
0,
0,
0,
0,
0,
0,
0,
0,
0,
1,
0,
0,
0,
1,
0,
0,
0,
0,
0,
0,
1,
0,
0,
0,
0,
0,
0,
0,
0,
0,
0,
0,
0,
0,
0,
0,
0,
0,
0,
0,
0,
0,
0,
0,
0,
0,
0,
0,
0,
0,
0,
0,
0,
0,
0,
0,
0,
0,
0,
0,
0,
0,
0,
0,
0,
0,
0,
0,
0,
0,
0,
0,
0,
0,
0,
0,
0,
0,
0,
0,
0,
0,
0,
0,
0,
0,
0,
0,
0,
0,
0,
0,
0,
0,
0,
0,
0,
0,
0,
0,
0,
0,
0,
0,
0,
0,
0,
0,
0,
0,
0,
0,
0,
0,
0,
0,
0,
0,
0,
0,
0,
0,
0,
0,
0,
0,
0,
0,
0,
0,
0,
0,
0,
0,
0,
0,
0,
0,
0,
0,
0,
0,
0,
0,
0,
0,
0,
0,
0,
0,
0,
0,
0,
0,
0,
0,
0,
0,
0,
0,
0,
0,
0,
0,
0,
0,
0,
0,
0,
0,
0,
0,
0,
0,
0,
0,
0,
0,
0,
#ENDOFDATA   :

File: MMM2 Olivine[1][4].msa
#FORMAT      : EMSA/MAS Spectral Data File
#VERSION     : 1.0
#TITLE       : MMM2 Olivine[1][all]
#DATE        : 28-SEP-2025
#TIME        : 23:02
#OWNER       : Unknown
#NPOINTS     : 4096
#NCOLUMNS    : 1
#XUNITS      : eV
#YUNITS      : counts
#DATATYPE    : Y
#XPERCHAN    : 9.99778
#OFFSET      : 1.69135
#BEAMKV      : 15
#SIGNALTYPE  : EDS
#ELEVANGLE   : 35
#AZIMANGLE   : 0
#LIVETIME    : 239.67
#REALTIME    : 257.453
#PROBECUR    : 1.2132
#TAUWIND     : 0
#TDEADLYR    : 0
#TACTLYR     : 0.045
#TALWIND     : 0.025
#CHOFFSET    : 0.0
#XLABEL      : Energy (eV)
#YLABEL      : Counts
#XPOSITION   : -21.30368
#YPOSITION   : 2.58344
#ZPOSITION   : 34.11879
#EDSDET      : SD
##SPECIMEN   : MMM2 Olivine[1][all]
##DET_HASH   : 12273538-fd48-a23f-0a19-f1e6fa85caef
##CALIB_HASH : 6abaa72c-aa41-8738-0be9-f592914732f3
##WORKING    : 15.0 mm
##DET_NAME   : EDAX All
##DET_MODE   : MediumLE
#SPECTRUM    :
18,
260,
11716,
10507,
92747,
10787,
4509,
4720,
7062,
259821,
3548,
3836,
40720,
19945,
2546,
2471,
2983,
2477,
2785,
2182,
2182,
2317,
2051,
1877,
1780,
1874,
1635,
1528,
1490,
1484,
1382,
1385,
1263,
1264,
1210,
1125,
1048,
1048,
922,
947,
986,
898,
941,
828,
742,
2143,
5285,
724,
638,
646,
1167,
785,
521,
643,
554,
491,
464,
419,
433,
449,
372,
375,
350,
341,
335,
319,
327,
282,
269,
267,
244,
242,
240,
206,
227,
206,
169,
167,
144,
122,
129,
114,
117,
114,
106,
114,
90,
83,
84,
82,
81,
54,
46,
63,
61,
45,
58,
27,
36,
25,
20,
19,
13,
9,
8,
7,
7,
1,
2,
0,
0,
1,
0,
0,
0,
0,
0,
0,
0,
0,
0,
0,
0,
0,
0,
0,
1,
0,
0,
0,
0,
0,
0,
0,
0,
0,
0,
0,
0,
0,
0,
0,
0,
0,
0,
1,
0,
0,
0,
0,
0,
0,
0,
0,
0,
0,
0,
0,
0,
0,
0,
0,
0,
0,
0,
0,
0,
0,
0,
0,
0,
0,
0,
0,
0,
0,
0,
0,
0,
0,
0,
0,
0,
0,
0,
0,
0,
0,
0,
0,
0,
0,
0,
0,
0,
0,
0,
0,
0,
0,
0,
0,
0,
0,
0,
0,
0,
0,
0,
0,
0,
0,
0,
0,
0,
0,
0,
0,
0,
0,
0,
0,
0,
0,
0,
0,
0,
0,
0,
0,
0,
0,
0,
0,
0,
0,
0,
0,
0,
0,
0,
0,
0,
0,
0,
0,
0,
0,
0,
0,
0,
0,
0,
0,
0,
0,
0,
0,
0,
0,
0,
0,
0,
0,
0,
0,
0,
0,
0,
0,
0,
0,
0,
0,
0,
0,
0,
0,
0,
0,
0,
0,
0,
0,
0,
0,
0,
0,
0,
0,
0,
0,
0,
0,
#ENDOFDATA   :

File: MMM2 Olivine[2][4].msa
#FORMAT      : EMSA/MAS Spectral Data File
#VERSION     : 1.0
#TITLE       : MMM2 Olivine[2][all]
#DATE        : 28-SEP-2025
#TIME        : 23:03
#OWNER       : Unknown
#NPOINTS     : 4096
#NCOLUMNS    : 1
#XUNITS      : eV
#YUNITS      : counts
#DATATYPE    : Y
#XPERCHAN    : 9.99778
#OFFSET      : 1.69135
#BEAMKV      : 15
#SIGNALTYPE  : EDS
#ELEVANGLE   : 35
#AZIMANGLE   : 0
#LIVETIME    : 240.23
#REALTIME    : 258.025
#PROBECUR    : 1.2132
#TAUWIND     : 0
#TDEADLYR    : 0
#TACTLYR     : 0.045
#TALWIND     : 0.025
#CHOFFSET    : 0.0
#XLABEL      : Energy (eV)
#YLABEL      : Counts
#XPOSITION   : -21.32886
#YPOSITION   : 2.47654
#ZPOSITION   : 34.11879
#EDSDET      : SD
##SPECIMEN   : MMM2 Olivine[2][all]
##DET_HASH   : 12273538-fd48-a23f-0a19-f1e6fa85caef
##CALIB_HASH : 6abaa72c-aa41-8738-0be9-f592914732f3
##WORKING    : 15.0 mm
##DET_NAME   : EDAX All
##DET_MODE   : MediumLE
#SPECTRUM    :
31,
267,
11788,
10608,
92914,
10799,
4532,
4611,
7009,
260492,
3499,
3814,
40428,
19555,
2582,
2437,
2952,
2399,
2795,
2223,
2063,
2367,
2010,
1928,
1759,
1884,
1639,
1520,
1519,
1502,
1311,
1351,
1285,
1298,
1197,
1074,
1068,
1072,
1008,
946,
904,
886,
962,
856,
811,
2191,
5166,
746,
658,
663,
1142,
914,
533,
622,
605,
499,
474,
436,
422,
448,
370,
380,
379,
364,
320,
318,
318,
266,
253,
263,
257,
270,
212,
200,
188,
200,
192,
169,
171,
144,
133,
137,
139,
110,
100,
102,
98,
100,
73,
77,
61,
62,
45,
40,
60,
42,
46,
38,
28,
19,
18,
15,
16,
10,
4,
9,
6,
1,
1,
1,
0,
0,
0,
0,
0,
0,
1,
0,
0,
0,
0,
0,
0,
0,
0,
0,
0,
0,
0,
0,
0,
0,
0,
1,
0,
0,
0,
0,
0,
0,
0,
0,
0,
0,
0,
0,
0,
0,
0,
0,
0,
0,
0,
0,
0,
0,
0,
0,
0,
0,
0,
0,
0,
0,
0,
0,
0,
0,
0,
0,
0,
0,
0,
0,
0,
0,
0,
0,
0,
0,
0,
0,
0,
0,
0,
0,
0,
0,
0,
0,
0,
0,
0,
0,
0,
0,
0,
0,
0,
0,
0,
0,
0,
0,
0,
0,
0,
0,
0,
0,
0,
0,
0,
0,
0,
0,
0,
0,
0,
0,
0,
0,
0,
0,
0,
0,
0,
0,
0,
0,
0,
0,
0,
0,
0,
0,
0,
0,
0,
0,
0,
0,
0,
0,
0,
0,
0,
0,
0,
0,
0,
0,
0,
0,
0,
0,
0,
0,
0,
0,
0,
0,
0,
0,
0,
0,
0,
0,
0,
0,
0,
0,
0,
0,
0,
0,
0,
0,
0,
0,
0,
0,
0,
0,
0,
0,
0,
0,
0,
0,
0,
0,
0,
0,
#ENDOFDATA   :

File: MMM2 Olivine[3][4].msa
#FORMAT      : EMSA/MAS Spectral Data File
#VERSION     : 1.0
#TITLE       : MMM2 Olivine[3][all]
#DATE        : 28-SEP-2025
#TIME        : 23:04
#OWNER       : Unknown
#NPOINTS     : 4096
#NCOLUMNS    : 1
#XUNITS      : eV
#YUNITS      : counts
#DATATYPE    : Y
#XPERCHAN    : 9.99778
#OFFSET      : 1.69135
#BEAMKV      : 15
#SIGNALTYPE  : EDS
#ELEVANGLE   : 35
#AZIMANGLE   : 0
#LIVETIME    : 239.8386
#REALTIME    : 257.633
#PROBECUR    : 1.2132
#TAUWIND     : 0
#TDEADLYR    : 0
#TACTLYR     : 0.045
#TALWIND     : 0.025
#CHOFFSET    : 0.0
#XLABEL      : Energy (eV)
#YLABEL      : Counts
#XPOSITION   : -21.30316
#YPOSITION   : 2.57623
#ZPOSITION   : 34.11879
#EDSDET      : SD
##SPECIMEN   : MMM2 Olivine[3][all]
##DET_HASH   : 12273538-fd48-a23f-0a19-f1e6fa85caef
##CALIB_HASH : 6abaa72c-aa41-8738-0be9-f592914732f3
##WORKING    : 15.0 mm
##DET_NAME   : EDAX All
##DET_MODE   : MediumLE
#SPECTRUM    :
18,
278,
11753,
10456,
93287,
10639,
4502,
4704,
7014,
259950,
3566,
3886,
40763,
19988,
2468,
2471,
2969,
2448,
2781,
2256,
2232,
2269,
1994,
1962,
1834,
1802,
1637,
1580,
1562,
1468,
1413,
1367,
1311,
1235,
1176,
1158,
1075,
1005,
1015,
982,
917,
825,
956,
817,
761,
2148,
5158,
722,
654,
651,
1186,
850,
550,
672,
627,
496,
492,
451,
459,
404,
376,
382,
361,
312,
331,
284,
303,
282,
268,
269,
233,
245,
230,
232,
206,
206,
175,
168,
134,
158,
127,
147,
122,
112,
125,
112,
105,
86,
70,
67,
57,
73,
57,
45,
52,
40,
39,
24,
39,
31,
28,
20,
18,
17,
9,
4,
5,
1,
2,
0,
0,
0,
0,
1,
0,
1,
0,
1,
1,
0,
0,
0,
0,
0,
1,
0,
0,
0,
0,
0,
0,
0,
0,
0,
0,
0,
0,
0,
0,
0,
0,
0,
0,
0,
0,
0,
0,
0,
0,
0,
0,
0,
0,
0,
0,
0,
0,
0,
0,
0,
0,
0,
0,
0,
0,
0,
0,
0,
0,
0,
0,
0,
0,
0,
0,
0,
0,
0,
0,
0,
0,
0,
0,
0,
0,
0,
0,
0,
0,
0,
0,
0,
0,
0,
0,
0,
0,
0,
0,
0,
0,
0,
0,
0,
0,
0,
0,
0,
0,
0,
0,
0,
0,
0,
0,
0,
0,
0,
0,
0,
0,
0,
0,
0,
0,
0,
0,
0,
0,
0,
0,
0,
0,
0,
0,
0,
0,
0,
0,
0,
0,
0,
0,
0,
0,
0,
0,
0,
0,
0,
0,
0,
0,
0,
0,
0,
0,
0,
0,
0,
0,
0,
0,
0,
0,
0,
0,
0,
0,
0,
0,
0,
0,
0,
0,
0,
0,
0,
0,
0,
0,
0,
0,
0,
0,
0,
0,
0,
0,
0,
0,
0,
0,
0,
#ENDOFDATA   :

File: MMM2 Olivine[4][4].msa
#FORMAT      : EMSA/MAS Spectral Data File
#VERSION     : 1.0
#TITLE       : MMM2 Olivine[4][all]
#DATE        : 28-SEP-2025
#TIME        : 23:05
#OWNER       : Unknown
#NPOINTS     : 4096
#NCOLUMNS    : 1
#XUNITS      : eV
#YUNITS      : counts
#DATATYPE    : Y
#XPERCHAN    : 9.99778
#OFFSET      : 1.69135
#BEAMKV      : 15
#SIGNALTYPE  : EDS
#ELEVANGLE   : 35
#AZIMANGLE   : 0
#LIVETIME    : 240.276
#REALTIME    : 258.138
#PROBECUR    : 1.2132
#TAUWIND     : 0
#TDEADLYR    : 0
#TACTLYR     : 0.045
#TALWIND     : 0.025
#CHOFFSET    : 0.0
#XLABEL      : Energy (eV)
#YLABEL      : Counts
#XPOSITION   : -21.2305
#YPOSITION   : 2.48482
#ZPOSITION   : 34.11879
#EDSDET      : SD
##SPECIMEN   : MMM2 Olivine[4][all]
##DET_HASH   : 12273538-fd48-a23f-0a19-f1e6fa85caef
##CALIB_HASH : 6abaa72c-aa41-8738-0be9-f592914732f3
##WORKING    : 15.0 mm
##DET_NAME   : EDAX All
##DET_MODE   : MediumLE
#SPECTRUM    :
28,
253,
11710,
10531,
93580,
10640,
4568,
4792,
7085,
261941,
3655,
3875,
41118,
20210,
2551,
2529,
2984,
2482,
2684,
2258,
2119,
2233,
2139,
1933,
1797,
1820,
1514,
1582,
1500,
1445,
1457,
1327,
1241,
1182,
1145,
1142,
1097,
1015,
939,
975,
916,
857,
950,
813,
794,
2133,
5213,
729,
664,
657,
1131,
878,
507,
603,
568,
516,
427,
472,
440,
440,
397,
357,
364,
353,
335,
300,
283,
275,
246,
249,
245,
210,
236,
200,
205,
183,
216,
161,
152,
148,
125,
121,
108,
131,
123,
109,
86,
79,
73,
89,
70,
67,
42,
50,
38,
48,
31,
42,
32,
34,
25,
13,
14,
10,
12,
5,
2,
1,
0,
2,
1,
0,
0,
1,
0,
0,
0,
0,
0,
0,
0,
0,
0,
0,
0,
0,
0,
0,
0,
0,
0,
0,
0,
0,
0,
0,
0,
0,
0,
0,
0,
0,
0,
0,
0,
0,
0,
0,
0,
0,
0,
0,
0,
0,
0,
0,
0,
0,
0,
0,
0,
0,
0,
0,
0,
0,
0,
0,
0,
0,
0,
0,
0,
0,
0,
0,
0,
0,
0,
0,
0,
0,
0,
0,
0,
0,
0,
0,
0,
0,
0,
0,
0,
0,
0,
0,
0,
0,
0,
0,
0,
0,
0,
0,
0,
0,
0,
0,
0,
0,
0,
0,
0,
0,
0,
0,
0,
0,
0,
0,
0,
0,
0,
0,
0,
0,
0,
0,
0,
0,
0,
0,
0,
0,
0,
0,
0,
0,
0,
0,
0,
0,
0,
0,
0,
0,
0,
0,
0,
0,
0,
0,
0,
0,
0,
0,
0,
0,
0,
0,
0,
0,
0,
0,
0,
0,
0,
0,
0,
0,
0,
0,
0,
0,
0,
0,
0,
0,
0,
0,
0,
0,
0,
0,
0,
0,
0,
0,
0,
0,
0,
0,
0,
0,
#ENDOFDATA   :

File: MMM2 Olivine[5][4].msa
#FORMAT      : EMSA/MAS Spectral Data File
#VERSION     : 1.0
#TITLE       : MMM2 Olivine[5][all]
#DATE        : 28-SEP-2025
#TIME        : 23:06
#OWNER       : Unknown
#NPOINTS     : 4096
#NCOLUMNS    : 1
#XUNITS      : eV
#YUNITS      : counts
#DATATYPE    : Y
#XPERCHAN    : 9.99778
#OFFSET      : 1.69135
#BEAMKV      : 15
#SIGNALTYPE  : EDS
#ELEVANGLE   : 35
#AZIMANGLE   : 0
#LIVETIME    : 240.471
#REALTIME    : 258.347
#PROBECUR    : 1.2132
#TAUWIND     : 0
#TDEADLYR    : 0
#TACTLYR     : 0.045
#TALWIND     : 0.025
#CHOFFSET    : 0.0
#XLABEL      : Energy (eV)
#YLABEL      : Counts
#XPOSITION   : -21.24651
#YPOSITION   : 2.44463
#ZPOSITION   : 34.11879
#EDSDET      : SD
##SPECIMEN   : MMM2 Olivine[5][all]
##DET_HASH   : 12273538-fd48-a23f-0a19-f1e6fa85caef
##CALIB_HASH : 6abaa72c-aa41-8738-0be9-f592914732f3
##WORKING    : 15.0 mm
##DET_NAME   : EDAX All
##DET_MODE   : MediumLE
#SPECTRUM    :
31,
249,
11995,
10676,
94112,
10830,
4615,
4793,
7013,
261800,
3596,
3958,
41332,
20270,
2639,
2479,
2934,
2395,
2766,
2280,
2150,
2316,
2071,
1863,
1864,
1848,
1680,
1600,
1538,
1528,
1419,
1383,
1213,
1282,
1182,
1118,
1155,
1063,
957,
943,
853,
872,
908,
767,
829,
2150,
5166,
726,
671,
634,
1150,
882,
552,
705,
589,
507,
482,
471,
458,
431,
398,
380,
389,
334,
305,
330,
299,
286,
254,
274,
238,
221,
235,
189,
219,
222,
170,
154,
154,
148,
128,
155,
110,
124,
113,
102,
99,
84,
89,
80,
77,
61,
62,
61,
53,
42,
43,
27,
37,
21,
23,
13,
17,
13,
6,
7,
3,
0,
1,
0,
0,
0,
0,
0,
0,
0,
0,
0,
0,
0,
0,
0,
0,
0,
0,
0,
0,
0,
0,
0,
0,
0,
0,
0,
0,
0,
0,
0,
0,
0,
0,
0,
0,
0,
1,
0,
0,
0,
0,
0,
0,
0,
0,
0,
0,
0,
0,
0,
0,
0,
0,
0,
0,
0,
0,
0,
0,
0,
0,
0,
0,
0,
0,
0,
0,
0,
0,
0,
0,
0,
0,
0,
0,
0,
0,
0,
0,
0,
0,
0,
0,
0,
0,
0,
0,
0,
0,
0,
0,
0,
0,
0,
0,
0,
0,
0,
0,
0,
0,
0,
0,
0,
0,
0,
0,
0,
0,
0,
0,
0,
0,
0,
0,
0,
0,
0,
0,
0,
0,
0,
0,
0,
0,
0,
0,
0,
0,
0,
0,
0,
0,
0,
0,
0,
0,
0,
0,
0,
0,
0,
0,
0,
0,
0,
0,
0,
0,
0,
0,
0,
0,
0,
0,
0,
0,
0,
0,
0,
0,
0,
0,
0,
0,
0,
0,
0,
0,
0,
0,
0,
0,
0,
0,
0,
0,
0,
0,
0,
0,
0,
0,
0,
0,
0,
#ENDOFDATA   :

File: MMM2 Olivine[6][4].msa
#FORMAT      : EMSA/MAS Spectral Data File
#VERSION     : 1.0
#TITLE       : MMM2 Olivine[6][all]
#DATE        : 28-SEP-2025
#TIME        : 23:08
#OWNER       : Unknown
#NPOINTS     : 4096
#NCOLUMNS    : 1
#XUNITS      : eV
#YUNITS      : counts
#DATATYPE    : Y
#XPERCHAN    : 9.99778
#OFFSET      : 1.69135
#BEAMKV      : 15
#SIGNALTYPE  : EDS
#ELEVANGLE   : 35
#AZIMANGLE   : 0
#LIVETIME    : 240.132
#REALTIME    : 257.904
#PROBECUR    : 1.2132
#TAUWIND     : 0
#TDEADLYR    : 0
#TACTLYR     : 0.045
#TALWIND     : 0.025
#CHOFFSET    : 0.0
#XLABEL      : Energy (eV)
#YLABEL      : Counts
#XPOSITION   : -21.38342
#YPOSITION   : 2.50753
#ZPOSITION   : 34.11879
#EDSDET      : SD
##SPECIMEN   : MMM2 Olivine[6][all]
##DET_HASH   : 12273538-fd48-a23f-0a19-f1e6fa85caef
##CALIB_HASH : 6abaa72c-aa41-8738-0be9-f592914732f3
##WORKING    : 15.0 mm
##DET_NAME   : EDAX All
##DET_MODE   : MediumLE
#SPECTRUM    :
29,
261,
11841,
10538,
92859,
10623,
4475,
4731,
6925,
260577,
3521,
3937,
40375,
19962,
2548,
2528,
2918,
2477,
2730,
2288,
2165,
2289,
2025,
1902,
1904,
1834,
1755,
1554,
1518,
1466,
1313,
1331,
1323,
1265,
1215,
1158,
1051,
1046,
991,
1004,
866,
891,
868,
819,
807,
2127,
5172,
750,
660,
649,
1129,
810,
533,
638,
574,
479,
491,
434,
434,
481,
376,
364,
354,
348,
330,
316,
296,
295,
274,
236,
247,
232,
223,
204,
161,
186,
157,
160,
157,
150,
148,
126,
110,
108,
107,
110,
86,
99,
98,
84,
69,
60,
56,
61,
58,
42,
37,
25,
24,
26,
18,
18,
17,
13,
4,
5,
2,
0,
0,
1,
0,
0,
0,
0,
1,
0,
0,
0,
0,
1,
0,
0,
0,
0,
0,
0,
0,
0,
0,
0,
0,
0,
0,
0,
0,
0,
0,
0,
0,
1,
0,
0,
0,
0,
0,
0,
0,
0,
0,
0,
0,
0,
0,
0,
0,
0,
0,
0,
0,
0,
0,
0,
0,
0,
0,
0,
0,
0,
0,
0,
0,
0,
0,
0,
0,
0,
0,
0,
0,
0,
0,
0,
0,
0,
0,
0,
0,
0,
0,
0,
0,
0,
0,
0,
0,
0,
0,
0,
0,
0,
0,
0,
0,
0,
0,
0,
0,
0,
0,
0,
0,
0,
0,
0,
0,
0,
0,
0,
0,
0,
0,
0,
0,
0,
0,
0,
0,
0,
0,
0,
0,
0,
0,
0,
0,
0,
0,
0,
0,
0,
0,
0,
0,
0,
0,
0,
0,
0,
0,
0,
0,
0,
0,
0,
0,
0,
0,
0,
0,
0,
0,
0,
0,
0,
0,
0,
0,
0,
0,
0,
0,
0,
0,
0,
0,
0,
0,
0,
0,
0,
0,
0,
0,
0,
0,
0,
0,
0,
0,
0,
0,
0,
0,
0,
#ENDOFDATA   :

File: MMM2 Olivine[7][4].msa
#FORMAT      : EMSA/MAS Spectral Data File
#VERSION     : 1.0
#TITLE       : MMM2 Olivine[7][all]
#DATE        : 28-SEP-2025
#TIME        : 23:09
#OWNER       : Unknown
#NPOINTS     : 4096
#NCOLUMNS    : 1
#XUNITS      : eV
#YUNITS      : counts
#DATATYPE    : Y
#XPERCHAN    : 9.99778
#OFFSET      : 1.69135
#BEAMKV      : 15
#SIGNALTYPE  : EDS
#ELEVANGLE   : 35
#AZIMANGLE   : 0
#LIVETIME    : 240.152
#REALTIME    : 257.961
#PROBECUR    : 1.2132
#TAUWIND     : 0
#TDEADLYR    : 0
#TACTLYR     : 0.045
#TALWIND     : 0.025
#CHOFFSET    : 0.0
#XLABEL      : Energy (eV)
#YLABEL      : Counts
#XPOSITION   : -21.33621
#YPOSITION   : 2.52716
#ZPOSITION   : 34.11879
#EDSDET      : SD
##SPECIMEN   : MMM2 Olivine[7][all]
##DET_HASH   : 12273538-fd48-a23f-0a19-f1e6fa85caef
##CALIB_HASH : 6abaa72c-aa41-8738-0be9-f592914732f3
##WORKING    : 15.0 mm
##DET_NAME   : EDAX All
##DET_MODE   : MediumLE
#SPECTRUM    :
26,
261,
11612,
10419,
93392,
10734,
4538,
4924,
7120,
260925,
3430,
3995,
40790,
20132,
2556,
2573,
2933,
2493,
2805,
2152,
2142,
2278,
2124,
1940,
1778,
1868,
1660,
1531,
1579,
1414,
1319,
1381,
1301,
1241,
1188,
1039,
1123,
1033,
942,
986,
945,
932,
912,
781,
750,
2155,
5329,
757,
643,
660,
1129,
854,
564,
646,
562,
490,
427,
411,
431,
424,
388,
386,
388,
334,
312,
287,
273,
255,
271,
257,
228,
244,
230,
218,
215,
191,
165,
150,
175,
134,
150,
139,
135,
124,
111,
100,
94,
104,
78,
71,
55,
68,
49,
58,
66,
43,
34,
27,
29,
22,
16,
19,
11,
19,
11,
6,
6,
1,
0,
0,
0,
0,
1,
0,
0,
0,
0,
0,
0,
0,
0,
0,
0,
0,
0,
0,
0,
0,
0,
0,
0,
0,
0,
0,
1,
0,
0,
0,
0,
0,
0,
0,
1,
0,
0,
0,
0,
0,
0,
0,
0,
0,
0,
0,
0,
0,
0,
0,
0,
0,
0,
0,
0,
0,
0,
0,
0,
0,
0,
0,
0,
0,
0,
0,
0,
0,
0,
0,
0,
0,
0,
0,
0,
0,
0,
0,
0,
0,
0,
0,
0,
0,
0,
0,
0,
0,
0,
0,
0,
0,
0,
0,
0,
0,
0,
0,
0,
0,
0,
0,
0,
0,
0,
0,
0,
0,
0,
0,
0,
0,
0,
0,
0,
0,
0,
0,
0,
0,
0,
0,
0,
0,
0,
0,
0,
0,
0,
0,
0,
0,
0,
0,
0,
0,
0,
0,
0,
0,
0,
0,
0,
0,
0,
0,
0,
0,
0,
0,
0,
0,
0,
0,
0,
0,
0,
0,
0,
0,
0,
0,
0,
0,
0,
0,
0,
0,
0,
0,
0,
0,
0,
0,
0,
0,
0,
0,
0,
0,
0,
0,
0,
0,
0,
0,
#ENDOFDATA   :