Folder: spex_quant/N132962/Quantification/15 keV/Mengason MM2 (part 11)

File: MMM2 Stibnite[0][4].msa
#FORMAT      : EMSA/MAS Spectral Data File
#VERSION     : 1.0
#TITLE       : MMM2 Stibnite[0][all]
#DATE        : 28-SEP-2025
#TIME        : 23:32
#OWNER       : Unknown
#NPOINTS     : 4096
#NCOLUMNS    : 1
#XUNITS      : eV
#YUNITS      : counts
#DATATYPE    : Y
#XPERCHAN    : 9.99778
#OFFSET      : 1.69135
#BEAMKV      : 15
#SIGNALTYPE  : EDS
#ELEVANGLE   : 35
#AZIMANGLE   : 0
#LIVETIME    : 240.186
#REALTIME    : 260.3936
#PROBECUR    : 1.21079
#TAUWIND     : 0
#TDEADLYR    : 0
#TACTLYR     : 0.045
#TALWIND     : 0.025
#CHOFFSET    : 0.0
#XLABEL      : Energy (eV)
#YLABEL      : Counts
#XPOSITION   : -14.45175
#YPOSITION   : 2.2513
#ZPOSITION   : 34.11879
#EDSDET      : SD
##SPECIMEN   : MMM2 Stibnite[0][all]
##DET_HASH   : 12273538-fd48-a23f-0a19-f1e6fa85caef
##CALIB_HASH : 6abaa72c-aa41-8738-0be9-f592914732f3
##WORKING    : 15.0 mm
##DET_NAME   : EDAX All
##DET_MODE   : MediumLE
#SPECTRUM    :
17,
2780,
19670,
23724,
10583,
7328,
6376,
6114,
6624,
7509,
7907,
8312,
8577,
9553,
7761,
8253,
54686,
42764,
11137,
5684,
5461,
5346,
5317,
8196,
5503,
14375,
80994,
21980,
29472,
13981,
6226,
8490,
3704,
5322,
3053,
2821,
2807,
2749,
2800,
2730,
2509,
2551,
2599,
2535,
2540,
2310,
2402,
2125,
2071,
2020,
1985,
1979,
1855,
1858,
1785,
1785,
1614,
1585,
1585,
1472,
1396,
1360,
1351,
1355,
1199,
1262,
1186,
1165,
1076,
1028,
1030,
984,
926,
923,
800,
825,
725,
771,
711,
674,
664,
641,
557,
523,
537,
453,
447,
447,
380,
377,
372,
343,
284,
280,
251,
210,
199,
153,
178,
132,
137,
115,
87,
79,
62,
43,
22,
6,
4,
2,
2,
2,
3,
5,
3,
3,
0,
3,
0,
0,
1,
2,
2,
2,
4,
4,
2,
2,
0,
0,
0,
1,
0,
0,
0,
0,
0,
0,
0,
0,
0,
0,
0,
1,
0,
0,
1,
0,
3,
0,
0,
0,
0,
0,
0,
1,
0,
1,
0,
1,
0,
1,
0,
0,
0,
0,
1,
1,
0,
0,
0,
0,
0,
0,
0,
0,
0,
0,
0,
0,
0,
0,
0,
0,
0,
0,
0,
0,
0,
0,
0,
0,
0,
0,
0,
0,
0,
0,
0,
0,
0,
0,
0,
0,
0,
0,
0,
0,
0,
0,
0,
0,
0,
0,
0,
0,
0,
0,
0,
0,
0,
0,
0,
0,
0,
0,
0,
0,
0,
0,
0,
0,
0,
0,
0,
0,
0,
0,
0,
0,
0,
0,
0,
0,
0,
0,
0,
0,
0,
0,
0,
0,
0,
0,
0,
0,
0,
0,
0,
0,
0,
0,
0,
0,
0,
0,
0,
0,
0,
0,
0,
0,
0,
0,
0,
0,
0,
0,
0,
0,
0,
0,
0,
0,
0,
0,
0,
0,
0,
0,
0,
0,
0,
0,
#ENDOFDATA   :

File: MMM2 Stibnite[1][4].msa
#FORMAT      : EMSA/MAS Spectral Data File
#VERSION     : 1.0
#TITLE       : MMM2 Stibnite[1][all]
#DATE        : 28-SEP-2025
#TIME        : 23:33
#OWNER       : Unknown
#NPOINTS     : 4096
#NCOLUMNS    : 1
#XUNITS      : eV
#YUNITS      : counts
#DATATYPE    : Y
#XPERCHAN    : 9.99778
#OFFSET      : 1.69135
#BEAMKV      : 15
#SIGNALTYPE  : EDS
#ELEVANGLE   : 35
#AZIMANGLE   : 0
#LIVETIME    : 240.207
#REALTIME    : 260.3986
#PROBECUR    : 1.21079
#TAUWIND     : 0
#TDEADLYR    : 0
#TACTLYR     : 0.045
#TALWIND     : 0.025
#CHOFFSET    : 0.0
#XLABEL      : Energy (eV)
#YLABEL      : Counts
#XPOSITION   : -14.45572
#YPOSITION   : 2.30219
#ZPOSITION   : 34.11879
#EDSDET      : SD
##SPECIMEN   : MMM2 Stibnite[1][all]
##DET_HASH   : 12273538-fd48-a23f-0a19-f1e6fa85caef
##CALIB_HASH : 6abaa72c-aa41-8738-0be9-f592914732f3
##WORKING    : 15.0 mm
##DET_NAME   : EDAX All
##DET_MODE   : MediumLE
#SPECTRUM    :
36,
2694,
19291,
23372,
10749,
7397,
6201,
6082,
6756,
7480,
8083,
8275,
8608,
9206,
7753,
8486,
55062,
42854,
11304,
5710,
5449,
5403,
5500,
8153,
5618,
14646,
81116,
21754,
29411,
13628,
6073,
8424,
3715,
5320,
3063,
2864,
2940,
2769,
2867,
2668,
2672,
2556,
2623,
2495,
2394,
2324,
2418,
2143,
2204,
1993,
2098,
1998,
1925,
1919,
1840,
1740,
1690,
1635,
1520,
1468,
1466,
1348,
1315,
1325,
1278,
1215,
1125,
1131,
1114,
1060,
997,
958,
967,
910,
837,
816,
794,
705,
705,
667,
626,
590,
639,
517,
510,
466,
533,
403,
390,
360,
308,
337,
275,
272,
248,
212,
216,
190,
154,
138,
103,
92,
79,
79,
50,
37,
25,
12,
3,
2,
4,
3,
2,
4,
1,
1,
2,
1,
2,
2,
3,
1,
2,
2,
2,
0,
1,
0,
0,
4,
1,
0,
1,
0,
0,
0,
1,
1,
0,
1,
2,
0,
0,
0,
0,
0,
0,
0,
0,
0,
0,
0,
0,
0,
0,
0,
1,
0,
0,
0,
0,
0,
0,
0,
0,
0,
0,
0,
1,
0,
0,
0,
0,
0,
0,
0,
0,
0,
1,
0,
0,
0,
0,
0,
0,
0,
0,
0,
0,
0,
0,
0,
0,
0,
0,
0,
0,
0,
0,
0,
0,
0,
0,
0,
0,
0,
0,
0,
0,
0,
0,
0,
0,
0,
0,
0,
0,
0,
0,
0,
0,
0,
0,
0,
0,
0,
0,
0,
0,
0,
0,
0,
0,
0,
0,
0,
0,
0,
0,
0,
0,
0,
0,
0,
0,
0,
0,
0,
0,
0,
0,
0,
0,
0,
0,
0,
0,
0,
0,
0,
0,
0,
0,
0,
0,
0,
0,
0,
0,
0,
0,
0,
0,
0,
0,
0,
0,
0,
0,
0,
0,
0,
0,
0,
0,
0,
0,
0,
0,
0,
0,
0,
0,
0,
#ENDOFDATA   :

File: MMM2 Stibnite[2][4].msa
#FORMAT      : EMSA/MAS Spectral Data File
#VERSION     : 1.0
#TITLE       : MMM2 Stibnite[2][all]
#DATE        : 28-SEP-2025
#TIME        : 23:34
#OWNER       : Unknown
#NPOINTS     : 4096
#NCOLUMNS    : 1
#XUNITS      : eV
#YUNITS      : counts
#DATATYPE    : Y
#XPERCHAN    : 9.99778
#OFFSET      : 1.69135
#BEAMKV      : 15
#SIGNALTYPE  : EDS
#ELEVANGLE   : 35
#AZIMANGLE   : 0
#LIVETIME    : 240.142
#REALTIME    : 260.322
#PROBECUR    : 1.21079
#TAUWIND     : 0
#TDEADLYR    : 0
#TACTLYR     : 0.045
#TALWIND     : 0.025
#CHOFFSET    : 0.0
#XLABEL      : Energy (eV)
#YLABEL      : Counts
#XPOSITION   : -14.48491
#YPOSITION   : 2.25999
#ZPOSITION   : 34.11879
#EDSDET      : SD
##SPECIMEN   : MMM2 Stibnite[2][all]
##DET_HASH   : 12273538-fd48-a23f-0a19-f1e6fa85caef
##CALIB_HASH : 6abaa72c-aa41-8738-0be9-f592914732f3
##WORKING    : 15.0 mm
##DET_NAME   : EDAX All
##DET_MODE   : MediumLE
#SPECTRUM    :
25,
2728,
19482,
23627,
10851,
7346,
6339,
5981,
6781,
7471,
7997,
8466,
8565,
9422,
7851,
8254,
55021,
42725,
11226,
5457,
5376,
5333,
5400,
8177,
5400,
14392,
81124,
21953,
29532,
13639,
6080,
8498,
3755,
5388,
3018,
2844,
2942,
2869,
2709,
2760,
2630,
2664,
2663,
2535,
2431,
2364,
2398,
2203,
2193,
2071,
2044,
1960,
1991,
1902,
1817,
1762,
1673,
1609,
1574,
1545,
1429,
1371,
1323,
1298,
1205,
1181,
1159,
1123,
1038,
1016,
1065,
948,
938,
898,
827,
819,
735,
721,
755,
664,
627,
578,
567,
558,
495,
492,
483,
378,
392,
395,
336,
309,
306,
277,
236,
237,
213,
175,
154,
139,
111,
121,
68,
70,
47,
40,
28,
16,
4,
2,
6,
2,
3,
2,
3,
1,
2,
2,
3,
0,
0,
3,
0,
4,
3,
2,
2,
1,
1,
2,
0,
0,
0,
0,
0,
0,
0,
0,
1,
3,
0,
0,
0,
0,
0,
0,
0,
0,
0,
0,
0,
0,
0,
0,
0,
0,
1,
0,
0,
0,
1,
0,
0,
0,
0,
0,
0,
0,
0,
0,
0,
0,
0,
1,
0,
0,
1,
0,
0,
0,
0,
0,
0,
0,
0,
1,
0,
0,
0,
0,
0,
0,
0,
0,
0,
0,
0,
0,
0,
0,
0,
0,
0,
0,
0,
0,
0,
0,
0,
0,
0,
0,
0,
0,
0,
0,
0,
0,
0,
0,
0,
0,
0,
0,
0,
0,
0,
0,
0,
0,
0,
0,
0,
0,
0,
0,
0,
0,
0,
0,
0,
0,
0,
0,
0,
0,
0,
0,
0,
0,
0,
0,
0,
0,
0,
0,
0,
0,
0,
0,
0,
0,
0,
0,
0,
0,
0,
0,
0,
0,
0,
0,
0,
0,
0,
0,
0,
0,
0,
0,
0,
0,
0,
0,
0,
0,
0,
0,
0,
0,
0,
0,
0,
0,
#ENDOFDATA   :

File: MMM2 Stibnite[3][4].msa
#FORMAT      : EMSA/MAS Spectral Data File
#VERSION     : 1.0
#TITLE       : MMM2 Stibnite[3][all]
#DATE        : 28-SEP-2025
#TIME        : 23:35
#OWNER       : Unknown
#NPOINTS     : 4096
#NCOLUMNS    : 1
#XUNITS      : eV
#YUNITS      : counts
#DATATYPE    : Y
#XPERCHAN    : 9.99778
#OFFSET      : 1.69135
#BEAMKV      : 15
#SIGNALTYPE  : EDS
#ELEVANGLE   : 35
#AZIMANGLE   : 0
#LIVETIME    : 240.183
#REALTIME    : 260.3904
#PROBECUR    : 1.21079
#TAUWIND     : 0
#TDEADLYR    : 0
#TACTLYR     : 0.045
#TALWIND     : 0.025
#CHOFFSET    : 0.0
#XLABEL      : Energy (eV)
#YLABEL      : Counts
#XPOSITION   : -14.5099
#YPOSITION   : 2.24599
#ZPOSITION   : 34.11879
#EDSDET      : SD
##SPECIMEN   : MMM2 Stibnite[3][all]
##DET_HASH   : 12273538-fd48-a23f-0a19-f1e6fa85caef
##CALIB_HASH : 6abaa72c-aa41-8738-0be9-f592914732f3
##WORKING    : 15.0 mm
##DET_NAME   : EDAX All
##DET_MODE   : MediumLE
#SPECTRUM    :
19,
2802,
19780,
23851,
10629,
7342,
6329,
5950,
6896,
7626,
7954,
8493,
8512,
9523,
7849,
8214,
55057,
42987,
11238,
5536,
5499,
5333,
5354,
8164,
5385,
14413,
81910,
22266,
30042,
13712,
6173,
8208,
3597,
5391,
3082,
2920,
2820,
2750,
2878,
2763,
2568,
2541,
2625,
2401,
2441,
2292,
2427,
2223,
2135,
2062,
2056,
2002,
2028,
1858,
1805,
1820,
1615,
1591,
1591,
1551,
1423,
1361,
1344,
1342,
1254,
1201,
1149,
1127,
1043,
1065,
1035,
995,
929,
907,
839,
784,
764,
696,
652,
654,
647,
616,
594,
538,
539,
435,
443,
461,
377,
376,
338,
284,
272,
243,
246,
226,
201,
169,
151,
134,
115,
102,
94,
76,
58,
29,
17,
7,
0,
1,
1,
6,
4,
3,
3,
1,
3,
3,
1,
0,
1,
1,
0,
3,
1,
2,
3,
0,
0,
0,
1,
1,
1,
1,
0,
0,
1,
0,
0,
0,
1,
1,
0,
1,
0,
0,
0,
0,
1,
0,
0,
0,
1,
0,
0,
0,
0,
0,
0,
0,
0,
0,
0,
0,
0,
0,
1,
0,
0,
0,
0,
0,
0,
0,
0,
0,
0,
0,
0,
0,
0,
0,
0,
1,
0,
0,
0,
0,
0,
0,
0,
0,
0,
0,
0,
0,
0,
0,
0,
0,
0,
0,
0,
0,
0,
0,
0,
0,
0,
0,
0,
0,
0,
0,
0,
0,
0,
0,
0,
0,
0,
0,
0,
0,
0,
0,
0,
0,
0,
0,
0,
0,
0,
0,
0,
0,
0,
0,
0,
0,
0,
0,
0,
0,
0,
0,
0,
0,
0,
0,
0,
0,
0,
0,
0,
0,
0,
0,
0,
0,
0,
0,
0,
0,
0,
0,
0,
0,
0,
0,
0,
0,
0,
0,
0,
0,
0,
0,
0,
0,
0,
0,
0,
0,
0,
0,
0,
0,
0,
0,
0,
0,
0,
0,
#ENDOFDATA   :

File: MMM2 Stibnite[4][4].msa
#FORMAT      : EMSA/MAS Spectral Data File
#VERSION     : 1.0
#TITLE       : MMM2 Stibnite[4][all]
#DATE        : 28-SEP-2025
#TIME        : 23:36
#OWNER       : Unknown
#NPOINTS     : 4096
#NCOLUMNS    : 1
#XUNITS      : eV
#YUNITS      : counts
#DATATYPE    : Y
#XPERCHAN    : 9.99778
#OFFSET      : 1.69135
#BEAMKV      : 15
#SIGNALTYPE  : EDS
#ELEVANGLE   : 35
#AZIMANGLE   : 0
#LIVETIME    : 240.1969
#REALTIME    : 260.394
#PROBECUR    : 1.21079
#TAUWIND     : 0
#TDEADLYR    : 0
#TACTLYR     : 0.045
#TALWIND     : 0.025
#CHOFFSET    : 0.0
#XLABEL      : Energy (eV)
#YLABEL      : Counts
#XPOSITION   : -14.44673
#YPOSITION   : 2.20352
#ZPOSITION   : 34.11879
#EDSDET      : SD
##SPECIMEN   : MMM2 Stibnite[4][all]
##DET_HASH   : 12273538-fd48-a23f-0a19-f1e6fa85caef
##CALIB_HASH : 6abaa72c-aa41-8738-0be9-f592914732f3
##WORKING    : 15.0 mm
##DET_NAME   : EDAX All
##DET_MODE   : MediumLE
#SPECTRUM    :
26,
2771,
19517,
23925,
10830,
7444,
6320,
5885,
6780,
7552,
8020,
8272,
8655,
9567,
7625,
8187,
55056,
42712,
11413,
5650,
5519,
5081,
5448,
8180,
5423,
14376,
81179,
21761,
29507,
13621,
6212,
8442,
3622,
5544,
3058,
2874,
2915,
2803,
2760,
2702,
2768,
2611,
2635,
2569,
2488,
2433,
2439,
2134,
2178,
2049,
2002,
1942,
1889,
1923,
1788,
1713,
1685,
1647,
1548,
1569,
1462,
1340,
1305,
1303,
1221,
1213,
1199,
1087,
1133,
1085,
1029,
979,
900,
908,
828,
849,
798,
741,
712,
676,
606,
586,
586,
521,
533,
492,
422,
397,
422,
367,
331,
319,
286,
286,
246,
253,
213,
154,
164,
133,
121,
97,
84,
72,
47,
27,
19,
12,
2,
4,
2,
2,
3,
0,
3,
3,
3,
1,
4,
4,
3,
2,
2,
1,
1,
0,
2,
1,
1,
0,
0,
2,
1,
0,
0,
0,
0,
0,
0,
0,
0,
1,
0,
1,
0,
0,
1,
2,
0,
0,
0,
0,
0,
0,
0,
0,
0,
0,
0,
0,
0,
0,
0,
0,
0,
0,
0,
0,
0,
0,
0,
0,
0,
1,
0,
0,
0,
0,
0,
0,
0,
0,
0,
0,
0,
0,
0,
0,
0,
0,
0,
0,
0,
0,
0,
0,
0,
0,
0,
0,
0,
0,
0,
0,
0,
0,
0,
0,
0,
0,
0,
0,
0,
0,
0,
0,
0,
0,
0,
0,
0,
0,
0,
0,
0,
0,
0,
0,
0,
0,
0,
0,
0,
0,
0,
0,
0,
0,
0,
0,
0,
0,
0,
0,
0,
0,
0,
0,
0,
0,
0,
0,
0,
0,
0,
0,
0,
0,
0,
0,
0,
0,
0,
0,
0,
0,
0,
0,
0,
0,
0,
0,
0,
0,
0,
0,
0,
0,
0,
0,
0,
0,
0,
0,
0,
0,
0,
0,
0,
0,
0,
0,
0,
0,
#ENDOFDATA   :

File: MMM2 Stibnite[5][4].msa
#FORMAT      : EMSA/MAS Spectral Data File
#VERSION     : 1.0
#TITLE       : MMM2 Stibnite[5][all]
#DATE        : 28-SEP-2025
#TIME        : 23:38
#OWNER       : Unknown
#NPOINTS     : 4096
#NCOLUMNS    : 1
#XUNITS      : eV
#YUNITS      : counts
#DATATYPE    : Y
#XPERCHAN    : 9.99778
#OFFSET      : 1.69135
#BEAMKV      : 15
#SIGNALTYPE  : EDS
#ELEVANGLE   : 35
#AZIMANGLE   : 0
#LIVETIME    : 240.157
#REALTIME    : 260.27
#PROBECUR    : 1.21079
#TAUWIND     : 0
#TDEADLYR    : 0
#TACTLYR     : 0.045
#TALWIND     : 0.025
#CHOFFSET    : 0.0
#XLABEL      : Energy (eV)
#YLABEL      : Counts
#XPOSITION   : -14.46718
#YPOSITION   : 2.25235
#ZPOSITION   : 34.11879
#EDSDET      : SD
##SPECIMEN   : MMM2 Stibnite[5][all]
##DET_HASH   : 12273538-fd48-a23f-0a19-f1e6fa85caef
##CALIB_HASH : 6abaa72c-aa41-8738-0be9-f592914732f3
##WORKING    : 15.0 mm
##DET_NAME   : EDAX All
##DET_MODE   : MediumLE
#SPECTRUM    :
30,
2744,
19510,
23431,
10765,
7290,
6342,
6068,
6764,
7439,
8123,
8304,
8661,
9452,
7693,
8459,
54881,
42650,
11039,
5633,
5452,
5262,
5478,
8186,
5484,
14316,
80873,
21763,
29582,
13683,
5984,
8260,
3683,
5398,
3017,
2856,
2859,
2801,
2724,
2690,
2628,
2560,
2707,
2565,
2537,
2331,
2416,
2175,
2055,
2035,
2054,
1887,
1890,
1872,
1697,
1705,
1707,
1572,
1561,
1480,
1414,
1403,
1383,
1290,
1277,
1126,
1213,
1135,
1056,
1110,
1029,
958,
876,
855,
828,
831,
731,
745,
669,
662,
618,
601,
579,
535,
491,
493,
413,
413,
368,
363,
349,
298,
281,
273,
237,
230,
196,
188,
150,
153,
104,
96,
88,
59,
66,
34,
30,
5,
3,
4,
2,
1,
6,
2,
3,
0,
2,
1,
2,
2,
1,
3,
3,
2,
0,
2,
1,
1,
0,
0,
0,
5,
1,
0,
0,
1,
0,
0,
2,
0,
0,
0,
0,
0,
1,
0,
0,
0,
0,
0,
0,
1,
0,
0,
0,
0,
0,
0,
0,
0,
0,
0,
0,
0,
0,
0,
0,
0,
0,
0,
0,
0,
0,
0,
0,
0,
0,
0,
0,
0,
0,
0,
0,
0,
0,
0,
1,
0,
0,
0,
0,
0,
0,
0,
0,
0,
0,
0,
0,
0,
0,
0,
0,
0,
0,
0,
0,
0,
0,
0,
0,
0,
0,
0,
0,
0,
0,
0,
0,
0,
0,
0,
0,
0,
0,
0,
0,
0,
0,
0,
0,
0,
0,
0,
0,
0,
0,
0,
0,
0,
0,
0,
0,
0,
0,
0,
0,
0,
0,
0,
0,
0,
0,
0,
0,
0,
0,
0,
0,
0,
0,
0,
0,
0,
0,
0,
0,
0,
0,
0,
0,
0,
0,
0,
0,
0,
0,
0,
0,
0,
0,
0,
0,
0,
0,
0,
0,
0,
0,
0,
0,
0,
0,
0,
#ENDOFDATA   :

File: MMM2 Stibnite[6][4].msa
#FORMAT      : EMSA/MAS Spectral Data File
#VERSION     : 1.0
#TITLE       : MMM2 Stibnite[6][all]
#DATE        : 28-SEP-2025
#TIME        : 23:39
#OWNER       : Unknown
#NPOINTS     : 4096
#NCOLUMNS    : 1
#XUNITS      : eV
#YUNITS      : counts
#DATATYPE    : Y
#XPERCHAN    : 9.99778
#OFFSET      : 1.69135
#BEAMKV      : 15
#SIGNALTYPE  : EDS
#ELEVANGLE   : 35
#AZIMANGLE   : 0
#LIVETIME    : 240.237
#REALTIME    : 260.455
#PROBECUR    : 1.21079
#TAUWIND     : 0
#TDEADLYR    : 0
#TACTLYR     : 0.045
#TALWIND     : 0.025
#CHOFFSET    : 0.0
#XLABEL      : Energy (eV)
#YLABEL      : Counts
#XPOSITION   : -14.43413
#YPOSITION   : 2.29201
#ZPOSITION   : 34.11879
#EDSDET      : SD
##SPECIMEN   : MMM2 Stibnite[6][all]
##DET_HASH   : 12273538-fd48-a23f-0a19-f1e6fa85caef
##CALIB_HASH : 6abaa72c-aa41-8738-0be9-f592914732f3
##WORKING    : 15.0 mm
##DET_NAME   : EDAX All
##DET_MODE   : MediumLE
#SPECTRUM    :
23,
2759,
19458,
23457,
10627,
7341,
6265,
6000,
6830,
7386,
7995,
8327,
8591,
9368,
7753,
8144,
55210,
43132,
11236,
5643,
5446,
5439,
5525,
8055,
5449,
14374,
81224,
21781,
29730,
13875,
6028,
8536,
3674,
5292,
3082,
2932,
2808,
2830,
2788,
2762,
2572,
2587,
2701,
2491,
2476,
2389,
2339,
2175,
2078,
1998,
2054,
1951,
1842,
1872,
1759,
1691,
1623,
1628,
1466,
1497,
1473,
1398,
1342,
1285,
1237,
1225,
1186,
1107,
1047,
1078,
995,
1012,
897,
905,
823,
813,
768,
748,
731,
633,
650,
641,
579,
533,
506,
494,
482,
403,
419,
342,
308,
308,
303,
259,
240,
222,
222,
177,
176,
142,
118,
97,
88,
70,
64,
39,
29,
7,
5,
3,
3,
4,
4,
1,
2,
0,
1,
2,
1,
4,
0,
0,
2,
1,
0,
1,
0,
2,
0,
2,
1,
1,
0,
1,
1,
0,
0,
0,
0,
2,
1,
0,
0,
0,
0,
0,
0,
0,
0,
1,
0,
0,
0,
0,
0,
0,
0,
0,
0,
0,
0,
0,
0,
1,
0,
0,
0,
0,
0,
1,
0,
0,
0,
0,
0,
0,
0,
0,
0,
0,
0,
0,
0,
0,
0,
0,
0,
0,
0,
0,
0,
0,
0,
0,
0,
0,
0,
0,
0,
0,
0,
0,
0,
0,
0,
0,
0,
0,
0,
0,
0,
0,
0,
0,
0,
0,
0,
0,
0,
0,
0,
0,
0,
0,
0,
0,
0,
0,
0,
0,
0,
0,
0,
0,
0,
0,
0,
0,
0,
0,
0,
0,
0,
0,
0,
0,
0,
0,
0,
0,
0,
0,
0,
0,
0,
0,
0,
0,
0,
0,
0,
0,
0,
0,
0,
0,
0,
0,
0,
0,
0,
0,
0,
0,
0,
0,
0,
0,
0,
0,
0,
0,
0,
0,
0,
0,
0,
0,
0,
0,
0,
0,
0,
0,
#ENDOFDATA   :

File: MMM2 Stibnite[7][4].msa
#FORMAT      : EMSA/MAS Spectral Data File
#VERSION     : 1.0
#TITLE       : MMM2 Stibnite[7][all]
#DATE        : 28-SEP-2025
#TIME        : 23:40
#OWNER       : Unknown
#NPOINTS     : 4096
#NCOLUMNS    : 1
#XUNITS      : eV
#YUNITS      : counts
#DATATYPE    : Y
#XPERCHAN    : 9.99778
#OFFSET      : 1.69135
#BEAMKV      : 15
#SIGNALTYPE  : EDS
#ELEVANGLE   : 35
#AZIMANGLE   : 0
#LIVETIME    : 240.204
#REALTIME    : 260.393
#PROBECUR    : 1.21079
#TAUWIND     : 0
#TDEADLYR    : 0
#TACTLYR     : 0.045
#TALWIND     : 0.025
#CHOFFSET    : 0.0
#XLABEL      : Energy (eV)
#YLABEL      : Counts
#XPOSITION   : -14.45327
#YPOSITION   : 2.21107
#ZPOSITION   : 34.11879
#EDSDET      : SD
##SPECIMEN   : MMM2 Stibnite[7][all]
##DET_HASH   : 12273538-fd48-a23f-0a19-f1e6fa85caef
##CALIB_HASH : 6abaa72c-aa41-8738-0be9-f592914732f3
##WORKING    : 15.0 mm
##DET_NAME   : EDAX All
##DET_MODE   : MediumLE
#SPECTRUM    :
23,
2689,
19501,
23536,
10588,
7347,
6347,
5938,
6806,
7427,
8052,
8433,
8742,
9355,
7813,
8474,
55149,
42920,
11279,
5648,
5430,
5334,
5474,
8104,
5390,
14212,
80733,
21687,
29769,
13717,
5938,
8494,
3693,
5365,
3025,
2870,
2798,
2804,
2743,
2773,
2633,
2635,
2640,
2559,
2436,
2369,
2418,
2178,
2159,
2135,
1970,
2060,
1893,
1894,
1851,
1739,
1711,
1650,
1479,
1531,
1413,
1341,
1406,
1271,
1279,
1171,
1193,
1132,
1066,
1046,
990,
997,
948,
872,
856,
809,
788,
730,
727,
620,
663,
612,
543,
567,
481,
479,
448,
402,
410,
369,
312,
303,
282,
267,
235,
249,
219,
167,
153,
146,
119,
117,
90,
59,
68,
42,
25,
10,
0,
2,
6,
2,
3,
2,
2,
0,
2,
0,
2,
1,
1,
3,
1,
2,
1,
5,
1,
1,
4,
0,
0,
1,
0,
1,
1,
0,
0,
0,
0,
0,
0,
0,
0,
0,
0,
0,
1,
0,
0,
0,
0,
0,
0,
0,
0,
0,
0,
0,
0,
0,
0,
0,
0,
0,
0,
0,
0,
0,
0,
0,
0,
0,
0,
0,
0,
0,
0,
0,
0,
0,
0,
0,
0,
0,
0,
0,
0,
0,
0,
0,
0,
0,
0,
0,
0,
0,
0,
0,
0,
0,
0,
0,
0,
0,
0,
0,
0,
0,
0,
0,
0,
0,
0,
0,
0,
0,
0,
0,
0,
0,
0,
0,
0,
0,
0,
0,
0,
0,
0,
0,
0,
0,
0,
0,
0,
0,
0,
0,
0,
0,
0,
0,
0,
0,
0,
0,
0,
0,
0,
0,
0,
0,
0,
0,
0,
0,
0,
0,
0,
0,
0,
0,
0,
0,
0,
0,
0,
0,
0,
0,
0,
0,
0,
0,
0,
0,
0,
0,
0,
0,
0,
0,
0,
0,
0,
0,
0,
0,
0,
0,
0,
0,
0,
0,
#ENDOFDATA   :

File: MMM2 Tugtupite[3][4].msa
#FORMAT      : EMSA/MAS Spectral Data File
#VERSION     : 1.0
#TITLE       : MMM2 Tugtupite[3][all]
#DATE        : 29-SEP-2025
#TIME        : 00:58
#OWNER       : Unknown
#NPOINTS     : 4096
#NCOLUMNS    : 1
#XUNITS      : eV
#YUNITS      : counts
#DATATYPE    : Y
#XPERCHAN    : 9.99778
#OFFSET      : 1.69135
#BEAMKV      : 15
#SIGNALTYPE  : EDS
#ELEVANGLE   : 35
#AZIMANGLE   : 0
#LIVETIME    : 240.421
#REALTIME    : 257.259
#PROBECUR    : 1.21247
#TAUWIND     : 0
#TDEADLYR    : 0
#TACTLYR     : 0.045
#TALWIND     : 0.025
#CHOFFSET    : 0.0
#XLABEL      : Energy (eV)
#YLABEL      : Counts
#XPOSITION   : -17.31174
#YPOSITION   : 6.71624
#ZPOSITION   : 34.11879
#EDSDET      : SD
##SPECIMEN   : MMM2 Tugtupite[3][all]
##DET_HASH   : 12273538-fd48-a23f-0a19-f1e6fa85caef
##CALIB_HASH : 6abaa72c-aa41-8738-0be9-f592914732f3
##WORKING    : 15.0 mm
##DET_NAME   : EDAX All
##DET_MODE   : MediumLE
#SPECTRUM    :
27,
305,
11649,
8445,
72845,
3159,
4750,
36686,
10451,
3967,
6950,
20017,
54949,
25754,
2639,
2590,
2926,
2376,
4877,
25418,
5323,
1964,
1915,
1815,
1737,
1798,
1612,
1538,
1399,
1355,
1290,
1349,
1204,
1122,
1048,
1029,
996,
915,
960,
929,
885,
858,
797,
749,
750,
740,
687,
649,
593,
597,
542,
512,
547,
537,
481,
506,
466,
400,
396,
367,
336,
339,
330,
300,
320,
296,
276,
284,
249,
258,
248,
216,
196,
184,
192,
190,
171,
171,
144,
141,
127,
119,
127,
90,
112,
108,
92,
69,
68,
81,
70,
64,
60,
37,
51,
33,
43,
29,
29,
28,
19,
7,
12,
8,
12,
4,
4,
0,
0,
0,
0,
0,
0,
0,
0,
0,
0,
0,
0,
0,
0,
0,
0,
0,
0,
0,
0,
0,
0,
0,
0,
0,
0,
0,
0,
1,
0,
0,
0,
0,
0,
0,
0,
0,
0,
0,
0,
0,
0,
0,
0,
0,
0,
0,
0,
0,
0,
0,
0,
0,
0,
0,
0,
0,
0,
0,
0,
0,
0,
0,
0,
0,
0,
0,
0,
0,
0,
0,
0,
0,
0,
0,
0,
0,
0,
0,
0,
0,
0,
0,
0,
0,
0,
0,
0,
0,
0,
0,
0,
0,
0,
0,
0,
0,
0,
0,
0,
0,
0,
0,
0,
0,
0,
0,
0,
0,
0,
0,
0,
0,
0,
0,
0,
0,
0,
0,
0,
0,
0,
0,
0,
0,
0,
0,
0,
0,
0,
0,
0,
0,
0,
0,
0,
0,
0,
0,
0,
0,
0,
0,
0,
0,
0,
0,
0,
0,
0,
0,
0,
0,
0,
0,
0,
0,
0,
0,
0,
0,
0,
0,
0,
0,
0,
0,
0,
0,
0,
0,
0,
0,
0,
0,
0,
0,
0,
0,
0,
0,
0,
0,
0,
0,
0,
0,
#ENDOFDATA   :

File: MMM2 Tugtupite[5][4].msa
#FORMAT      : EMSA/MAS Spectral Data File
#VERSION     : 1.0
#TITLE       : MMM2 Tugtupite[5][all]
#DATE        : 29-SEP-2025
#TIME        : 01:01
#OWNER       : Unknown
#NPOINTS     : 4096
#NCOLUMNS    : 1
#XUNITS      : eV
#YUNITS      : counts
#DATATYPE    : Y
#XPERCHAN    : 9.99778
#OFFSET      : 1.69135
#BEAMKV      : 15
#SIGNALTYPE  : EDS
#ELEVANGLE   : 35
#AZIMANGLE   : 0
#LIVETIME    : 240.437
#REALTIME    : 257.32
#PROBECUR    : 1.21248
#TAUWIND     : 0
#TDEADLYR    : 0
#TACTLYR     : 0.045
#TALWIND     : 0.025
#CHOFFSET    : 0.0
#XLABEL      : Energy (eV)
#YLABEL      : Counts
#XPOSITION   : -17.26358
#YPOSITION   : 6.74789
#ZPOSITION   : 34.11879
#EDSDET      : SD
##SPECIMEN   : MMM2 Tugtupite[5][all]
##DET_HASH   : 12273538-fd48-a23f-0a19-f1e6fa85caef
##CALIB_HASH : 6abaa72c-aa41-8738-0be9-f592914732f3
##WORKING    : 15.0 mm
##DET_NAME   : EDAX All
##DET_MODE   : MediumLE
#SPECTRUM    :
22,
308,
11546,
8270,
73061,
3221,
4651,
36446,
10856,
3988,
7142,
19668,
54915,
25654,
2596,
2609,
3014,
2430,
4811,
25278,
5208,
1962,
1917,
1914,
1645,
1833,
1580,
1510,
1414,
1354,
1305,
1305,
1187,
1131,
1103,
1115,
975,
1011,
942,
913,
817,
827,
861,
746,
719,
725,
700,
642,
600,
541,
565,
528,
499,
514,
488,
465,
440,
440,
445,
414,
342,
324,
343,
335,
296,
300,
277,
280,
261,
231,
245,
210,
211,
214,
191,
193,
144,
159,
153,
128,
134,
122,
108,
91,
125,
109,
79,
73,
83,
58,
74,
66,
49,
58,
50,
42,
42,
33,
31,
23,
29,
19,
14,
15,
7,
6,
4,
0,
0,
0,
0,
0,
0,
0,
0,
0,
0,
0,
0,
0,
0,
0,
0,
0,
0,
0,
0,
0,
0,
0,
0,
0,
0,
0,
0,
0,
0,
0,
0,
0,
0,
0,
0,
0,
0,
0,
0,
0,
0,
0,
0,
0,
0,
0,
0,
0,
0,
0,
0,
0,
0,
0,
0,
0,
0,
0,
0,
0,
0,
0,
0,
0,
0,
0,
0,
0,
0,
0,
0,
0,
0,
0,
0,
0,
0,
0,
0,
0,
0,
0,
0,
0,
0,
0,
0,
0,
0,
0,
0,
0,
0,
0,
0,
0,
0,
0,
0,
0,
0,
0,
0,
0,
0,
0,
0,
0,
0,
0,
0,
0,
0,
0,
0,
0,
0,
0,
0,
0,
0,
0,
0,
0,
0,
0,
0,
0,
0,
0,
0,
0,
0,
0,
0,
0,
0,
0,
0,
0,
0,
0,
0,
0,
0,
0,
0,
0,
0,
0,
0,
0,
0,
0,
0,
0,
0,
0,
0,
0,
0,
0,
0,
0,
0,
0,
0,
0,
0,
0,
0,
0,
0,
0,
0,
0,
0,
0,
0,
0,
0,
0,
0,
0,
0,
0,
#ENDOFDATA   :

File: MMM2 Tugtupite[6][4].msa
#FORMAT      : EMSA/MAS Spectral Data File
#VERSION     : 1.0
#TITLE       : MMM2 Tugtupite[6][all]
#DATE        : 29-SEP-2025
#TIME        : 01:02
#OWNER       : Unknown
#NPOINTS     : 4096
#NCOLUMNS    : 1
#XUNITS      : eV
#YUNITS      : counts
#DATATYPE    : Y
#XPERCHAN    : 9.99778
#OFFSET      : 1.69135
#BEAMKV      : 15
#SIGNALTYPE  : EDS
#ELEVANGLE   : 35
#AZIMANGLE   : 0
#LIVETIME    : 240.336
#REALTIME    : 257.201
#PROBECUR    : 1.21248
#TAUWIND     : 0
#TDEADLYR    : 0
#TACTLYR     : 0.045
#TALWIND     : 0.025
#CHOFFSET    : 0.0
#XLABEL      : Energy (eV)
#YLABEL      : Counts
#XPOSITION   : -17.27483
#YPOSITION   : 6.77591
#ZPOSITION   : 34.11879
#EDSDET      : SD
##SPECIMEN   : MMM2 Tugtupite[6][all]
##DET_HASH   : 12273538-fd48-a23f-0a19-f1e6fa85caef
##CALIB_HASH : 6abaa72c-aa41-8738-0be9-f592914732f3
##WORKING    : 15.0 mm
##DET_NAME   : EDAX All
##DET_MODE   : MediumLE
#SPECTRUM    :
27,
318,
11372,
8489,
72871,
3299,
4736,
36736,
10587,
3984,
6947,
19946,
54542,
25623,
2648,
2611,
2947,
2442,
4979,
25132,
5273,
2041,
1921,
1983,
1720,
1830,
1577,
1423,
1498,
1376,
1333,
1310,
1225,
1141,
1101,
1101,
1061,
1007,
931,
881,
829,
848,
804,
727,
699,
716,
657,
633,
626,
559,
533,
610,
550,
446,
491,
496,
428,
414,
408,
378,
371,
383,
357,
304,
280,
288,
298,
293,
245,
238,
233,
226,
218,
235,
185,
165,
187,
160,
146,
142,
157,
139,
96,
108,
99,
91,
72,
61,
68,
84,
67,
53,
59,
54,
34,
41,
30,
24,
25,
27,
17,
15,
13,
9,
8,
6,
2,
0,
4,
0,
0,
0,
0,
0,
0,
0,
0,
0,
0,
0,
0,
0,
0,
0,
0,
0,
0,
0,
0,
0,
0,
0,
0,
0,
0,
0,
0,
0,
0,
0,
0,
0,
0,
0,
0,
0,
0,
0,
0,
0,
0,
0,
0,
0,
0,
0,
0,
0,
0,
0,
0,
0,
0,
0,
0,
0,
0,
0,
0,
0,
0,
0,
0,
0,
0,
0,
0,
0,
0,
0,
0,
0,
0,
0,
0,
0,
0,
0,
0,
0,
0,
0,
0,
0,
0,
0,
0,
0,
0,
0,
0,
0,
0,
0,
0,
0,
0,
0,
0,
0,
0,
0,
0,
0,
0,
0,
0,
0,
0,
0,
0,
0,
0,
0,
0,
0,
0,
0,
0,
0,
0,
0,
0,
0,
0,
0,
0,
0,
0,
0,
0,
0,
0,
0,
0,
0,
0,
0,
0,
0,
0,
0,
0,
0,
0,
0,
0,
0,
0,
0,
0,
0,
0,
0,
0,
0,
0,
0,
0,
0,
0,
0,
0,
0,
0,
0,
0,
0,
0,
0,
0,
0,
0,
0,
0,
0,
0,
0,
0,
0,
0,
0,
0,
0,
#ENDOFDATA   :

File: MMM2 Tugtupite[7][4].msa
#FORMAT      : EMSA/MAS Spectral Data File
#VERSION     : 1.0
#TITLE       : MMM2 Tugtupite[7][all]
#DATE        : 29-SEP-2025
#TIME        : 01:03
#OWNER       : Unknown
#NPOINTS     : 4096
#NCOLUMNS    : 1
#XUNITS      : eV
#YUNITS      : counts
#DATATYPE    : Y
#XPERCHAN    : 9.99778
#OFFSET      : 1.69135
#BEAMKV      : 15
#SIGNALTYPE  : EDS
#ELEVANGLE   : 35
#AZIMANGLE   : 0
#LIVETIME    : 240.397
#REALTIME    : 257.253
#PROBECUR    : 1.21248
#TAUWIND     : 0
#TDEADLYR    : 0
#TACTLYR     : 0.045
#TALWIND     : 0.025
#CHOFFSET    : 0.0
#XLABEL      : Energy (eV)
#YLABEL      : Counts
#XPOSITION   : -17.27848
#YPOSITION   : 6.7636
#ZPOSITION   : 34.11879
#EDSDET      : SD
##SPECIMEN   : MMM2 Tugtupite[7][all]
##DET_HASH   : 12273538-fd48-a23f-0a19-f1e6fa85caef
##CALIB_HASH : 6abaa72c-aa41-8738-0be9-f592914732f3
##WORKING    : 15.0 mm
##DET_NAME   : EDAX All
##DET_MODE   : MediumLE
#SPECTRUM    :
20,
292,
11543,
8500,
72868,
3314,
4476,
36813,
10656,
3932,
7135,
19998,
54408,
25937,
2608,
2565,
2973,
2425,
4748,
25052,
5186,
2004,
1910,
1797,
1733,
1773,
1550,
1491,
1425,
1349,
1264,
1305,
1176,
1174,
1104,
1084,
1045,
977,
895,
913,
860,
853,
805,
744,
737,
717,
681,
617,
605,
624,
564,
558,
509,
516,
489,
470,
446,
445,
381,
398,
370,
362,
365,
342,
333,
294,
294,
260,
265,
250,
231,
211,
213,
197,
164,
188,
170,
173,
158,
154,
144,
139,
99,
106,
117,
88,
80,
86,
99,
77,
61,
50,
43,
47,
43,
41,
38,
25,
22,
20,
18,
12,
11,
8,
10,
12,
2,
0,
0,
0,
0,
0,
0,
0,
0,
1,
0,
0,
0,
0,
0,
0,
0,
0,
0,
0,
0,
0,
0,
0,
0,
0,
0,
0,
0,
0,
0,
0,
0,
0,
0,
0,
0,
0,
0,
0,
0,
0,
0,
1,
0,
0,
0,
0,
0,
0,
0,
0,
0,
0,
0,
0,
0,
0,
0,
0,
0,
0,
0,
0,
0,
0,
0,
0,
0,
0,
0,
0,
0,
0,
0,
0,
0,
0,
0,
0,
0,
0,
0,
0,
0,
0,
0,
0,
0,
0,
0,
0,
0,
0,
0,
0,
0,
0,
0,
0,
0,
0,
0,
0,
0,
0,
0,
0,
0,
0,
0,
0,
0,
0,
0,
0,
0,
0,
0,
0,
0,
0,
0,
0,
0,
0,
0,
0,
0,
0,
0,
0,
0,
0,
0,
0,
0,
0,
0,
0,
0,
0,
0,
0,
0,
0,
0,
0,
0,
0,
0,
0,
0,
0,
0,
0,
0,
0,
0,
0,
0,
0,
0,
0,
0,
0,
0,
0,
0,
0,
0,
0,
0,
0,
0,
0,
0,
0,
0,
0,
0,
0,
0,
0,
0,
0,
0,
0,
#ENDOFDATA   :