Folder: spex_quant/N132962/Quantification/15 keV/Mengason MM2 (part 14)

File: MMM2 Zircon-2[0][4].msa
#FORMAT      : EMSA/MAS Spectral Data File
#VERSION     : 1.0
#TITLE       : MMM2 Zircon-2[0][all]
#DATE        : 29-SEP-2025
#TIME        : 01:16
#OWNER       : Unknown
#NPOINTS     : 4096
#NCOLUMNS    : 1
#XUNITS      : eV
#YUNITS      : counts
#DATATYPE    : Y
#XPERCHAN    : 9.99778
#OFFSET      : 1.69135
#BEAMKV      : 15
#SIGNALTYPE  : EDS
#ELEVANGLE   : 35
#AZIMANGLE   : 0
#LIVETIME    : 240.271
#REALTIME    : 257.133
#PROBECUR    : 1.21247
#TAUWIND     : 0
#TDEADLYR    : 0
#TACTLYR     : 0.045
#TALWIND     : 0.025
#CHOFFSET    : 0.0
#XLABEL      : Energy (eV)
#YLABEL      : Counts
#XPOSITION   : -14.6734
#YPOSITION   : 7.58655
#ZPOSITION   : 34.11879
#EDSDET      : SD
##SPECIMEN   : MMM2 Zircon-2[0][all]
##DET_HASH   : 12273538-fd48-a23f-0a19-f1e6fa85caef
##CALIB_HASH : 6abaa72c-aa41-8738-0be9-f592914732f3
##WORKING    : 15.0 mm
##DET_NAME   : EDAX All
##DET_MODE   : MediumLE
#SPECTRUM    :
22,
1026,
18237,
6514,
37046,
4390,
5453,
6265,
6875,
7396,
7494,
8184,
48136,
30798,
26782,
94260,
11752,
3473,
4272,
3215,
3169,
3196,
3077,
3067,
2934,
3017,
2861,
2924,
2839,
2691,
2518,
2371,
2319,
2351,
2155,
2180,
1984,
1949,
1920,
1865,
1768,
1764,
1701,
1582,
1527,
1431,
1602,
1392,
1325,
1289,
1299,
1181,
1116,
1121,
1046,
1053,
1136,
1010,
954,
892,
872,
813,
798,
778,
802,
724,
695,
679,
606,
634,
559,
553,
504,
453,
474,
459,
436,
430,
402,
371,
362,
347,
284,
293,
296,
253,
225,
240,
204,
172,
181,
178,
140,
137,
119,
109,
112,
88,
78,
60,
58,
48,
45,
25,
25,
15,
10,
1,
0,
2,
1,
1,
1,
0,
0,
1,
0,
1,
0,
1,
0,
0,
0,
0,
0,
2,
0,
0,
0,
1,
0,
0,
1,
0,
0,
0,
0,
0,
0,
0,
1,
0,
0,
0,
0,
0,
0,
0,
0,
0,
0,
0,
0,
0,
0,
0,
0,
0,
0,
0,
0,
0,
0,
0,
0,
0,
0,
0,
0,
0,
0,
0,
0,
0,
0,
0,
0,
0,
0,
0,
0,
0,
0,
0,
0,
0,
0,
0,
0,
0,
0,
0,
0,
0,
0,
0,
0,
0,
0,
0,
0,
0,
0,
0,
0,
0,
0,
0,
0,
0,
0,
0,
0,
0,
0,
0,
0,
0,
0,
0,
0,
0,
0,
0,
0,
0,
0,
0,
0,
0,
0,
0,
0,
0,
0,
0,
0,
0,
0,
0,
0,
0,
0,
0,
0,
0,
0,
0,
0,
0,
0,
0,
0,
0,
0,
0,
0,
0,
0,
0,
0,
0,
0,
0,
0,
0,
0,
0,
0,
0,
0,
0,
0,
0,
0,
0,
0,
0,
0,
0,
0,
0,
0,
0,
0,
0,
0,
0,
0,
0,
0,
0,
0,
0,
#ENDOFDATA   :

File: MMM2 Zircon-2[1][4].msa
#FORMAT      : EMSA/MAS Spectral Data File
#VERSION     : 1.0
#TITLE       : MMM2 Zircon-2[1][all]
#DATE        : 29-SEP-2025
#TIME        : 01:17
#OWNER       : Unknown
#NPOINTS     : 4096
#NCOLUMNS    : 1
#XUNITS      : eV
#YUNITS      : counts
#DATATYPE    : Y
#XPERCHAN    : 9.99778
#OFFSET      : 1.69135
#BEAMKV      : 15
#SIGNALTYPE  : EDS
#ELEVANGLE   : 35
#AZIMANGLE   : 0
#LIVETIME    : 240.265
#REALTIME    : 257.134
#PROBECUR    : 1.21248
#TAUWIND     : 0
#TDEADLYR    : 0
#TACTLYR     : 0.045
#TALWIND     : 0.025
#CHOFFSET    : 0.0
#XLABEL      : Energy (eV)
#YLABEL      : Counts
#XPOSITION   : -14.67784
#YPOSITION   : 7.58205
#ZPOSITION   : 34.11879
#EDSDET      : SD
##SPECIMEN   : MMM2 Zircon-2[1][all]
##DET_HASH   : 12273538-fd48-a23f-0a19-f1e6fa85caef
##CALIB_HASH : 6abaa72c-aa41-8738-0be9-f592914732f3
##WORKING    : 15.0 mm
##DET_NAME   : EDAX All
##DET_MODE   : MediumLE
#SPECTRUM    :
33,
1025,
17954,
6428,
37141,
4581,
5547,
6432,
6790,
7377,
7690,
8171,
48420,
30808,
26786,
94089,
11731,
3625,
4278,
3347,
3211,
3137,
3099,
2986,
2907,
3020,
2845,
2993,
2813,
2581,
2560,
2358,
2423,
2209,
2230,
2152,
2125,
2036,
1907,
1896,
1785,
1666,
1630,
1601,
1604,
1522,
1547,
1499,
1362,
1311,
1300,
1249,
1129,
1162,
1141,
1001,
1064,
1024,
914,
956,
881,
805,
788,
776,
795,
720,
706,
708,
652,
573,
559,
554,
519,
491,
439,
486,
451,
393,
366,
367,
345,
334,
303,
311,
281,
288,
250,
220,
202,
190,
170,
162,
119,
135,
122,
107,
88,
85,
59,
59,
60,
56,
40,
33,
27,
15,
4,
4,
1,
1,
1,
1,
1,
0,
1,
0,
0,
0,
0,
0,
0,
1,
0,
0,
2,
0,
1,
1,
0,
0,
1,
0,
0,
0,
1,
0,
0,
0,
0,
0,
0,
0,
0,
0,
0,
1,
0,
0,
0,
0,
0,
0,
0,
0,
0,
1,
0,
0,
0,
0,
0,
0,
0,
0,
0,
0,
0,
0,
0,
0,
0,
0,
0,
0,
0,
0,
0,
0,
0,
0,
0,
0,
0,
0,
0,
0,
0,
0,
0,
0,
0,
0,
0,
0,
0,
0,
0,
0,
0,
0,
0,
0,
0,
0,
0,
0,
0,
0,
0,
0,
0,
0,
0,
0,
0,
0,
0,
0,
0,
0,
0,
0,
0,
0,
0,
0,
0,
0,
0,
0,
0,
0,
0,
0,
0,
0,
0,
0,
0,
0,
0,
0,
0,
0,
0,
0,
0,
0,
0,
0,
0,
0,
0,
0,
0,
0,
0,
0,
0,
0,
0,
0,
0,
0,
0,
0,
0,
0,
0,
0,
0,
0,
0,
0,
0,
0,
0,
0,
0,
0,
0,
0,
0,
0,
0,
0,
0,
0,
0,
0,
0,
0,
0,
0,
#ENDOFDATA   :

File: MMM2 Zircon-2[2][4].msa
#FORMAT      : EMSA/MAS Spectral Data File
#VERSION     : 1.0
#TITLE       : MMM2 Zircon-2[2][all]
#DATE        : 29-SEP-2025
#TIME        : 01:18
#OWNER       : Unknown
#NPOINTS     : 4096
#NCOLUMNS    : 1
#XUNITS      : eV
#YUNITS      : counts
#DATATYPE    : Y
#XPERCHAN    : 9.99778
#OFFSET      : 1.69135
#BEAMKV      : 15
#SIGNALTYPE  : EDS
#ELEVANGLE   : 35
#AZIMANGLE   : 0
#LIVETIME    : 240.258
#REALTIME    : 257.125
#PROBECUR    : 1.21248
#TAUWIND     : 0
#TDEADLYR    : 0
#TACTLYR     : 0.045
#TALWIND     : 0.025
#CHOFFSET    : 0.0
#XLABEL      : Energy (eV)
#YLABEL      : Counts
#XPOSITION   : -14.67589
#YPOSITION   : 7.61832
#ZPOSITION   : 34.11879
#EDSDET      : SD
##SPECIMEN   : MMM2 Zircon-2[2][all]
##DET_HASH   : 12273538-fd48-a23f-0a19-f1e6fa85caef
##CALIB_HASH : 6abaa72c-aa41-8738-0be9-f592914732f3
##WORKING    : 15.0 mm
##DET_NAME   : EDAX All
##DET_MODE   : MediumLE
#SPECTRUM    :
17,
991,
18296,
6582,
37063,
4640,
5498,
6246,
6728,
7575,
7623,
8136,
48357,
30674,
26665,
93808,
11808,
3536,
4346,
3279,
3209,
3153,
3087,
3082,
2896,
3001,
2900,
3051,
2841,
2676,
2454,
2436,
2340,
2274,
2218,
2119,
1996,
1994,
1917,
1855,
1791,
1691,
1693,
1625,
1548,
1492,
1500,
1430,
1362,
1290,
1254,
1236,
1170,
1216,
1101,
1010,
1090,
981,
943,
937,
874,
848,
795,
791,
738,
708,
640,
703,
654,
623,
590,
554,
534,
497,
506,
483,
422,
428,
394,
379,
347,
328,
316,
306,
293,
223,
253,
231,
171,
184,
180,
132,
167,
138,
115,
120,
90,
100,
79,
62,
58,
40,
45,
28,
26,
14,
6,
1,
2,
4,
1,
1,
0,
1,
0,
1,
2,
2,
0,
0,
0,
0,
0,
1,
0,
0,
0,
0,
0,
0,
1,
1,
0,
0,
0,
0,
0,
0,
1,
0,
0,
0,
0,
1,
0,
1,
0,
0,
0,
0,
0,
0,
0,
0,
0,
0,
0,
0,
0,
1,
0,
0,
0,
1,
0,
0,
0,
0,
0,
0,
0,
0,
0,
0,
0,
0,
0,
0,
0,
0,
0,
0,
0,
0,
0,
0,
0,
0,
0,
0,
0,
0,
0,
0,
0,
0,
0,
0,
0,
0,
0,
0,
0,
0,
0,
0,
0,
0,
0,
0,
0,
0,
0,
0,
0,
0,
0,
0,
0,
0,
0,
0,
0,
0,
0,
0,
0,
0,
0,
0,
0,
0,
0,
0,
0,
0,
0,
0,
0,
0,
0,
0,
0,
0,
0,
0,
0,
0,
0,
0,
0,
0,
0,
0,
0,
0,
0,
0,
0,
0,
0,
0,
0,
0,
0,
0,
0,
0,
0,
0,
0,
0,
0,
0,
0,
0,
0,
0,
0,
0,
0,
0,
0,
0,
0,
0,
0,
0,
0,
0,
0,
0,
0,
0,
#ENDOFDATA   :

File: MMM2 Zircon-2[3][4].msa
#FORMAT      : EMSA/MAS Spectral Data File
#VERSION     : 1.0
#TITLE       : MMM2 Zircon-2[3][all]
#DATE        : 29-SEP-2025
#TIME        : 01:19
#OWNER       : Unknown
#NPOINTS     : 4096
#NCOLUMNS    : 1
#XUNITS      : eV
#YUNITS      : counts
#DATATYPE    : Y
#XPERCHAN    : 9.99778
#OFFSET      : 1.69135
#BEAMKV      : 15
#SIGNALTYPE  : EDS
#ELEVANGLE   : 35
#AZIMANGLE   : 0
#LIVETIME    : 240.274
#REALTIME    : 257.136
#PROBECUR    : 1.21247
#TAUWIND     : 0
#TDEADLYR    : 0
#TACTLYR     : 0.045
#TALWIND     : 0.025
#CHOFFSET    : 0.0
#XLABEL      : Energy (eV)
#YLABEL      : Counts
#XPOSITION   : -14.67753
#YPOSITION   : 7.57633
#ZPOSITION   : 34.11879
#EDSDET      : SD
##SPECIMEN   : MMM2 Zircon-2[3][all]
##DET_HASH   : 12273538-fd48-a23f-0a19-f1e6fa85caef
##CALIB_HASH : 6abaa72c-aa41-8738-0be9-f592914732f3
##WORKING    : 15.0 mm
##DET_NAME   : EDAX All
##DET_MODE   : MediumLE
#SPECTRUM    :
19,
1025,
18077,
6537,
37216,
4511,
5460,
6363,
6855,
7425,
7745,
8004,
48447,
30615,
26708,
94749,
11721,
3649,
4395,
3171,
3236,
3077,
3165,
3099,
2982,
3015,
2770,
2993,
2687,
2785,
2629,
2349,
2367,
2407,
2251,
2088,
2096,
2044,
1922,
1801,
1889,
1743,
1650,
1598,
1546,
1581,
1468,
1378,
1351,
1216,
1249,
1240,
1216,
1173,
1044,
1033,
1110,
1036,
904,
890,
854,
825,
765,
760,
778,
736,
696,
631,
654,
567,
593,
560,
510,
521,
471,
432,
414,
410,
383,
377,
321,
320,
317,
303,
254,
269,
202,
219,
190,
160,
180,
169,
161,
115,
118,
113,
79,
83,
101,
68,
68,
45,
40,
24,
28,
23,
5,
5,
2,
0,
1,
1,
1,
2,
0,
0,
1,
1,
1,
0,
0,
0,
0,
0,
0,
0,
0,
0,
0,
0,
1,
0,
0,
1,
0,
0,
0,
0,
0,
0,
0,
0,
0,
0,
0,
0,
0,
0,
0,
0,
1,
0,
0,
0,
0,
0,
0,
0,
0,
0,
0,
0,
0,
0,
0,
0,
0,
0,
0,
0,
0,
0,
0,
0,
0,
0,
0,
0,
0,
0,
0,
0,
0,
1,
0,
0,
0,
0,
0,
0,
0,
0,
0,
0,
0,
0,
0,
0,
0,
0,
0,
0,
0,
0,
0,
0,
0,
0,
0,
0,
0,
0,
0,
0,
0,
0,
0,
0,
0,
0,
0,
0,
0,
0,
0,
0,
0,
0,
0,
0,
0,
0,
0,
0,
0,
0,
0,
0,
0,
0,
0,
0,
0,
0,
0,
0,
0,
0,
0,
0,
0,
0,
0,
0,
0,
0,
0,
0,
0,
0,
0,
0,
0,
0,
0,
0,
0,
0,
0,
0,
0,
0,
0,
0,
0,
0,
0,
0,
0,
0,
0,
0,
0,
0,
0,
0,
0,
0,
0,
0,
0,
0,
0,
0,
#ENDOFDATA   :

File: MMM2 Zircon-2[4][4].msa
#FORMAT      : EMSA/MAS Spectral Data File
#VERSION     : 1.0
#TITLE       : MMM2 Zircon-2[4][all]
#DATE        : 29-SEP-2025
#TIME        : 01:20
#OWNER       : Unknown
#NPOINTS     : 4096
#NCOLUMNS    : 1
#XUNITS      : eV
#YUNITS      : counts
#DATATYPE    : Y
#XPERCHAN    : 9.99778
#OFFSET      : 1.69135
#BEAMKV      : 15
#SIGNALTYPE  : EDS
#ELEVANGLE   : 35
#AZIMANGLE   : 0
#LIVETIME    : 240.247
#REALTIME    : 257.13
#PROBECUR    : 1.21248
#TAUWIND     : 0
#TDEADLYR    : 0
#TACTLYR     : 0.045
#TALWIND     : 0.025
#CHOFFSET    : 0.0
#XLABEL      : Energy (eV)
#YLABEL      : Counts
#XPOSITION   : -14.67144
#YPOSITION   : 7.60528
#ZPOSITION   : 34.11879
#EDSDET      : SD
##SPECIMEN   : MMM2 Zircon-2[4][all]
##DET_HASH   : 12273538-fd48-a23f-0a19-f1e6fa85caef
##CALIB_HASH : 6abaa72c-aa41-8738-0be9-f592914732f3
##WORKING    : 15.0 mm
##DET_NAME   : EDAX All
##DET_MODE   : MediumLE
#SPECTRUM    :
27,
1067,
18134,
6517,
37011,
4615,
5527,
6284,
6921,
7534,
7795,
8169,
48487,
30472,
26870,
94823,
11740,
3502,
4365,
3303,
3314,
3064,
3161,
3055,
3084,
3071,
2831,
3013,
2748,
2737,
2653,
2455,
2341,
2218,
2146,
2154,
2044,
2009,
1948,
1889,
1739,
1760,
1652,
1562,
1593,
1533,
1581,
1422,
1375,
1286,
1283,
1208,
1135,
1137,
1101,
1029,
1120,
981,
1002,
911,
797,
806,
754,
797,
773,
741,
718,
685,
602,
585,
589,
543,
533,
478,
448,
434,
441,
417,
409,
400,
318,
316,
296,
268,
309,
262,
237,
228,
212,
203,
188,
154,
151,
123,
139,
112,
113,
83,
87,
75,
60,
58,
48,
38,
25,
17,
5,
4,
0,
1,
2,
0,
0,
2,
0,
0,
1,
0,
0,
1,
1,
0,
0,
0,
0,
0,
0,
0,
1,
0,
0,
0,
0,
0,
0,
0,
0,
0,
0,
0,
1,
0,
0,
0,
0,
0,
0,
1,
0,
0,
0,
0,
0,
0,
0,
0,
0,
0,
0,
0,
0,
0,
0,
0,
0,
0,
0,
0,
0,
0,
0,
0,
0,
0,
0,
0,
0,
0,
0,
0,
0,
0,
0,
0,
0,
0,
0,
0,
0,
0,
0,
0,
0,
0,
0,
0,
0,
0,
0,
0,
0,
0,
0,
0,
0,
0,
0,
0,
0,
0,
0,
0,
0,
0,
0,
0,
0,
0,
0,
0,
0,
0,
0,
0,
0,
0,
0,
0,
0,
0,
0,
0,
0,
0,
0,
0,
0,
0,
0,
0,
0,
0,
0,
0,
0,
0,
0,
0,
0,
0,
0,
0,
0,
0,
0,
0,
0,
0,
0,
0,
0,
0,
0,
0,
0,
0,
0,
0,
0,
0,
0,
0,
0,
0,
0,
0,
0,
0,
0,
0,
0,
0,
0,
0,
0,
0,
0,
0,
0,
0,
0,
0,
0,
0,
#ENDOFDATA   :

File: MMM2 Zircon-2[5][4].msa
#FORMAT      : EMSA/MAS Spectral Data File
#VERSION     : 1.0
#TITLE       : MMM2 Zircon-2[5][all]
#DATE        : 29-SEP-2025
#TIME        : 01:21
#OWNER       : Unknown
#NPOINTS     : 4096
#NCOLUMNS    : 1
#XUNITS      : eV
#YUNITS      : counts
#DATATYPE    : Y
#XPERCHAN    : 9.99778
#OFFSET      : 1.69135
#BEAMKV      : 15
#SIGNALTYPE  : EDS
#ELEVANGLE   : 35
#AZIMANGLE   : 0
#LIVETIME    : 240.254
#REALTIME    : 257.1287
#PROBECUR    : 1.21248
#TAUWIND     : 0
#TDEADLYR    : 0
#TACTLYR     : 0.045
#TALWIND     : 0.025
#CHOFFSET    : 0.0
#XLABEL      : Energy (eV)
#YLABEL      : Counts
#XPOSITION   : -14.66117
#YPOSITION   : 7.63321
#ZPOSITION   : 34.11879
#EDSDET      : SD
##SPECIMEN   : MMM2 Zircon-2[5][all]
##DET_HASH   : 12273538-fd48-a23f-0a19-f1e6fa85caef
##CALIB_HASH : 6abaa72c-aa41-8738-0be9-f592914732f3
##WORKING    : 15.0 mm
##DET_NAME   : EDAX All
##DET_MODE   : MediumLE
#SPECTRUM    :
28,
1057,
18033,
6541,
37157,
4556,
5602,
6387,
6740,
7476,
7671,
8046,
48222,
30243,
26878,
94307,
11982,
3529,
4304,
3175,
3232,
3039,
3152,
3112,
3001,
3026,
2810,
2911,
2805,
2744,
2490,
2396,
2290,
2180,
2212,
2072,
2117,
1992,
1890,
1885,
1798,
1708,
1700,
1673,
1607,
1540,
1582,
1445,
1352,
1337,
1353,
1283,
1160,
1144,
1083,
1065,
1050,
974,
931,
896,
858,
834,
782,
707,
784,
682,
657,
677,
615,
601,
609,
535,
532,
475,
479,
444,
471,
414,
387,
371,
320,
307,
279,
313,
273,
245,
249,
224,
221,
205,
190,
154,
158,
135,
132,
121,
90,
79,
80,
64,
59,
46,
34,
34,
27,
25,
8,
0,
0,
1,
1,
2,
2,
2,
1,
2,
0,
0,
0,
1,
0,
0,
0,
0,
0,
0,
0,
0,
0,
1,
0,
1,
0,
0,
0,
0,
0,
0,
0,
0,
0,
0,
0,
0,
0,
0,
0,
0,
0,
0,
0,
0,
0,
0,
0,
0,
0,
0,
0,
0,
0,
0,
0,
0,
0,
0,
0,
0,
0,
0,
0,
0,
0,
0,
0,
0,
0,
0,
0,
0,
0,
0,
0,
0,
0,
0,
0,
0,
0,
0,
0,
0,
0,
0,
0,
0,
0,
0,
0,
0,
0,
0,
0,
0,
0,
0,
0,
0,
0,
0,
0,
0,
0,
0,
0,
0,
0,
0,
0,
0,
0,
0,
0,
0,
0,
0,
0,
0,
0,
0,
0,
0,
0,
0,
0,
0,
0,
0,
0,
0,
0,
0,
0,
0,
0,
0,
0,
0,
0,
0,
0,
0,
0,
0,
0,
0,
0,
0,
0,
0,
0,
0,
0,
0,
0,
0,
0,
0,
0,
0,
0,
0,
0,
0,
0,
0,
0,
0,
0,
0,
0,
0,
0,
0,
0,
0,
0,
0,
0,
0,
0,
0,
0,
0,
#ENDOFDATA   :

File: MMM2 Zircon-2[6][4].msa
#FORMAT      : EMSA/MAS Spectral Data File
#VERSION     : 1.0
#TITLE       : MMM2 Zircon-2[6][all]
#DATE        : 29-SEP-2025
#TIME        : 01:22
#OWNER       : Unknown
#NPOINTS     : 4096
#NCOLUMNS    : 1
#XUNITS      : eV
#YUNITS      : counts
#DATATYPE    : Y
#XPERCHAN    : 9.99778
#OFFSET      : 1.69135
#BEAMKV      : 15
#SIGNALTYPE  : EDS
#ELEVANGLE   : 35
#AZIMANGLE   : 0
#LIVETIME    : 240.327
#REALTIME    : 257.127
#PROBECUR    : 1.21248
#TAUWIND     : 0
#TDEADLYR    : 0
#TACTLYR     : 0.045
#TALWIND     : 0.025
#CHOFFSET    : 0.0
#XLABEL      : Energy (eV)
#YLABEL      : Counts
#XPOSITION   : -14.67849
#YPOSITION   : 7.55358
#ZPOSITION   : 34.11879
#EDSDET      : SD
##SPECIMEN   : MMM2 Zircon-2[6][all]
##DET_HASH   : 12273538-fd48-a23f-0a19-f1e6fa85caef
##CALIB_HASH : 6abaa72c-aa41-8738-0be9-f592914732f3
##WORKING    : 15.0 mm
##DET_NAME   : EDAX All
##DET_MODE   : MediumLE
#SPECTRUM    :
23,
995,
18039,
6536,
37463,
4627,
5530,
6357,
6820,
7578,
7713,
8225,
47158,
30307,
28882,
91762,
11666,
3598,
4299,
3284,
3314,
3144,
3028,
2938,
3024,
3027,
2960,
2919,
2850,
2706,
2580,
2433,
2319,
2233,
2156,
2198,
2041,
2070,
1859,
1800,
1822,
1744,
1719,
1542,
1571,
1546,
1653,
1433,
1328,
1280,
1250,
1196,
1210,
1151,
1123,
1023,
1106,
999,
912,
905,
835,
810,
771,
795,
775,
742,
666,
630,
578,
593,
593,
595,
548,
514,
478,
419,
437,
415,
419,
369,
366,
307,
301,
326,
231,
235,
215,
211,
206,
214,
191,
161,
162,
134,
127,
115,
84,
95,
90,
89,
52,
54,
38,
38,
35,
15,
10,
3,
0,
2,
0,
2,
1,
0,
0,
0,
0,
1,
1,
1,
0,
0,
0,
0,
2,
0,
0,
0,
0,
0,
0,
0,
0,
0,
0,
0,
0,
0,
0,
0,
0,
0,
0,
0,
0,
0,
0,
1,
0,
0,
0,
0,
0,
0,
0,
0,
0,
0,
0,
0,
1,
0,
0,
0,
0,
0,
0,
0,
0,
0,
0,
0,
0,
0,
0,
0,
0,
0,
0,
0,
0,
0,
0,
0,
0,
0,
0,
0,
0,
0,
0,
0,
0,
0,
0,
0,
0,
0,
0,
0,
0,
0,
0,
0,
0,
0,
0,
0,
0,
0,
0,
0,
0,
0,
0,
0,
0,
0,
0,
0,
0,
0,
0,
0,
0,
0,
0,
0,
0,
0,
0,
0,
0,
0,
0,
0,
0,
0,
0,
0,
0,
0,
0,
0,
0,
0,
0,
0,
0,
0,
0,
0,
0,
0,
0,
0,
0,
0,
0,
0,
0,
0,
0,
0,
0,
0,
0,
0,
0,
0,
0,
0,
0,
0,
0,
0,
0,
0,
0,
0,
0,
0,
0,
0,
0,
0,
0,
0,
0,
0,
0,
0,
0,
0,
#ENDOFDATA   :

File: MMM2 Zircon-2[7][4].msa
#FORMAT      : EMSA/MAS Spectral Data File
#VERSION     : 1.0
#TITLE       : MMM2 Zircon-2[7][all]
#DATE        : 29-SEP-2025
#TIME        : 01:24
#OWNER       : Unknown
#NPOINTS     : 4096
#NCOLUMNS    : 1
#XUNITS      : eV
#YUNITS      : counts
#DATATYPE    : Y
#XPERCHAN    : 9.99778
#OFFSET      : 1.69135
#BEAMKV      : 15
#SIGNALTYPE  : EDS
#ELEVANGLE   : 35
#AZIMANGLE   : 0
#LIVETIME    : 240.198
#REALTIME    : 256.941
#PROBECUR    : 1.21248
#TAUWIND     : 0
#TDEADLYR    : 0
#TACTLYR     : 0.045
#TALWIND     : 0.025
#CHOFFSET    : 0.0
#XLABEL      : Energy (eV)
#YLABEL      : Counts
#XPOSITION   : -14.65694
#YPOSITION   : 7.62219
#ZPOSITION   : 34.11879
#EDSDET      : SD
##SPECIMEN   : MMM2 Zircon-2[7][all]
##DET_HASH   : 12273538-fd48-a23f-0a19-f1e6fa85caef
##CALIB_HASH : 6abaa72c-aa41-8738-0be9-f592914732f3
##WORKING    : 15.0 mm
##DET_NAME   : EDAX All
##DET_MODE   : MediumLE
#SPECTRUM    :
21,
1050,
17889,
6455,
37362,
4730,
5424,
6201,
6883,
7398,
7720,
8339,
47866,
30137,
25880,
91858,
11418,
3536,
4313,
3217,
3098,
3096,
3129,
2896,
2967,
3128,
2896,
3118,
2730,
2660,
2511,
2506,
2324,
2278,
2239,
2104,
2005,
2042,
1873,
1878,
1700,
1765,
1639,
1563,
1518,
1572,
1661,
1408,
1306,
1287,
1260,
1181,
1161,
1203,
989,
1035,
1055,
969,
890,
872,
814,
817,
751,
734,
757,
698,
642,
654,
635,
599,
598,
503,
527,
476,
463,
480,
432,
427,
380,
370,
344,
331,
296,
267,
260,
258,
222,
213,
208,
208,
168,
170,
127,
142,
118,
104,
95,
87,
86,
67,
51,
44,
33,
40,
29,
19,
9,
6,
1,
0,
2,
0,
2,
0,
2,
0,
0,
0,
0,
1,
1,
1,
0,
0,
0,
0,
0,
0,
2,
0,
0,
1,
0,
2,
1,
0,
0,
1,
0,
0,
0,
0,
1,
0,
0,
0,
0,
0,
0,
1,
0,
0,
0,
0,
0,
0,
0,
0,
0,
0,
1,
0,
0,
0,
0,
0,
0,
0,
0,
0,
0,
0,
0,
0,
0,
0,
0,
0,
0,
0,
0,
0,
0,
0,
0,
0,
0,
0,
0,
0,
0,
0,
0,
0,
0,
0,
0,
0,
0,
0,
0,
0,
0,
0,
0,
0,
0,
0,
0,
0,
0,
0,
0,
0,
0,
0,
0,
0,
0,
0,
0,
0,
0,
0,
0,
0,
0,
0,
0,
0,
0,
0,
0,
0,
0,
0,
0,
0,
0,
0,
0,
0,
0,
0,
0,
0,
0,
0,
0,
0,
0,
0,
0,
0,
0,
0,
0,
0,
0,
0,
0,
0,
0,
0,
0,
0,
0,
0,
0,
0,
0,
0,
0,
0,
0,
0,
0,
0,
0,
0,
0,
0,
0,
0,
0,
0,
0,
0,
0,
0,
0,
0,
0,
0,
#ENDOFDATA   :

File: MMM2 Zircon[0][4].msa
#FORMAT      : EMSA/MAS Spectral Data File
#VERSION     : 1.0
#TITLE       : MMM2 Zircon[0][all]
#DATE        : 29-SEP-2025
#TIME        : 01:05
#OWNER       : Unknown
#NPOINTS     : 4096
#NCOLUMNS    : 1
#XUNITS      : eV
#YUNITS      : counts
#DATATYPE    : Y
#XPERCHAN    : 9.99778
#OFFSET      : 1.69135
#BEAMKV      : 15
#SIGNALTYPE  : EDS
#ELEVANGLE   : 35
#AZIMANGLE   : 0
#LIVETIME    : 240.29
#REALTIME    : 257.125
#PROBECUR    : 1.21248
#TAUWIND     : 0
#TDEADLYR    : 0
#TACTLYR     : 0.045
#TALWIND     : 0.025
#CHOFFSET    : 0.0
#XLABEL      : Energy (eV)
#YLABEL      : Counts
#XPOSITION   : -13.66119
#YPOSITION   : 6.99355
#ZPOSITION   : 34.11879
#EDSDET      : SD
##SPECIMEN   : MMM2 Zircon[0][all]
##D2STDCMP   : Zircon,(O:34.9128),(Si:15.3216),(Zr:49.7657),8.0
##DET_HASH   : 12273538-fd48-a23f-0a19-f1e6fa85caef
##CALIB_HASH : 6abaa72c-aa41-8738-0be9-f592914732f3
##WORKING    : 15.0 mm
##DET_NAME   : EDAX All
##DET_MODE   : MediumLE
#SPECTRUM    :
14,
1030,
18366,
6394,
36907,
4591,
5477,
6265,
7036,
7434,
7568,
8172,
48424,
30160,
27000,
93595,
11725,
3689,
4244,
3239,
3146,
3268,
3140,
3021,
2952,
3085,
2760,
3059,
2700,
2665,
2611,
2441,
2390,
2301,
2238,
2090,
2100,
2025,
1882,
1801,
1785,
1741,
1671,
1713,
1502,
1448,
1442,
1368,
1327,
1287,
1241,
1265,
1166,
1203,
1102,
1028,
1155,
1027,
896,
879,
843,
810,
787,
760,
752,
775,
733,
667,
627,
612,
577,
597,
476,
484,
470,
448,
456,
377,
398,
365,
359,
320,
285,
287,
286,
257,
222,
244,
220,
175,
176,
153,
130,
129,
133,
107,
106,
87,
92,
81,
60,
54,
47,
34,
26,
13,
7,
2,
2,
2,
1,
1,
1,
1,
1,
0,
1,
0,
1,
0,
0,
0,
0,
0,
0,
1,
0,
0,
0,
0,
0,
0,
0,
0,
0,
0,
1,
0,
0,
0,
0,
0,
0,
0,
0,
0,
0,
1,
0,
0,
0,
0,
1,
0,
0,
0,
0,
0,
0,
0,
0,
0,
0,
0,
0,
0,
0,
0,
0,
0,
0,
0,
0,
0,
0,
0,
0,
0,
0,
0,
1,
0,
0,
0,
0,
0,
0,
0,
0,
0,
0,
0,
0,
0,
0,
0,
0,
0,
0,
0,
0,
0,
0,
0,
0,
0,
0,
0,
0,
0,
0,
0,
0,
0,
0,
0,
0,
0,
0,
0,
0,
0,
0,
0,
0,
0,
0,
0,
0,
0,
0,
0,
0,
0,
0,
0,
0,
0,
0,
0,
0,
0,
0,
0,
0,
0,
0,
0,
0,
0,
0,
0,
0,
0,
0,
0,
0,
0,
0,
0,
0,
0,
0,
0,
0,
0,
0,
0,
0,
0,
0,
0,
0,
0,
0,
0,
0,
0,
0,
0,
0,
0,
0,
0,
0,
0,
0,
0,
0,
0,
0,
0,
0,
0,
#ENDOFDATA   :

File: MMM2 Zircon[1][4].msa
#FORMAT      : EMSA/MAS Spectral Data File
#VERSION     : 1.0
#TITLE       : MMM2 Zircon[1][all]
#DATE        : 29-SEP-2025
#TIME        : 01:06
#OWNER       : Unknown
#NPOINTS     : 4096
#NCOLUMNS    : 1
#XUNITS      : eV
#YUNITS      : counts
#DATATYPE    : Y
#XPERCHAN    : 9.99778
#OFFSET      : 1.69135
#BEAMKV      : 15
#SIGNALTYPE  : EDS
#ELEVANGLE   : 35
#AZIMANGLE   : 0
#LIVETIME    : 240.266
#REALTIME    : 257.063
#PROBECUR    : 1.21248
#TAUWIND     : 0
#TDEADLYR    : 0
#TACTLYR     : 0.045
#TALWIND     : 0.025
#CHOFFSET    : 0.0
#XLABEL      : Energy (eV)
#YLABEL      : Counts
#XPOSITION   : -13.65469
#YPOSITION   : 7.00341
#ZPOSITION   : 34.11879
#EDSDET      : SD
##SPECIMEN   : MMM2 Zircon[1][all]
##D2STDCMP   : Zircon,(O:34.9128),(Si:15.3216),(Zr:49.7657),8.0
##DET_HASH   : 12273538-fd48-a23f-0a19-f1e6fa85caef
##CALIB_HASH : 6abaa72c-aa41-8738-0be9-f592914732f3
##WORKING    : 15.0 mm
##DET_NAME   : EDAX All
##DET_MODE   : MediumLE
#SPECTRUM    :
17,
1034,
18004,
6527,
36753,
4646,
5393,
6232,
6815,
7522,
7732,
8030,
48211,
30794,
26858,
93243,
11607,
3590,
4304,
3202,
3250,
3112,
3112,
3041,
2952,
3002,
2936,
2974,
2753,
2713,
2572,
2392,
2376,
2252,
2184,
2140,
2031,
1956,
2004,
1888,
1849,
1728,
1658,
1564,
1552,
1482,
1551,
1381,
1338,
1288,
1313,
1251,
1139,
1151,
1077,
1095,
1073,
981,
920,
883,
882,
853,
857,
782,
810,
713,
681,
706,
638,
554,
561,
560,
509,
503,
474,
469,
390,
387,
400,
404,
373,
316,
293,
252,
297,
258,
266,
239,
187,
207,
186,
179,
161,
114,
127,
102,
104,
97,
79,
79,
60,
42,
33,
31,
28,
16,
5,
3,
1,
1,
1,
2,
2,
1,
0,
0,
1,
0,
0,
1,
1,
1,
1,
0,
0,
0,
2,
0,
0,
1,
0,
1,
0,
0,
0,
0,
0,
0,
0,
0,
0,
0,
0,
0,
0,
0,
0,
0,
0,
0,
0,
0,
0,
2,
0,
0,
0,
0,
0,
0,
0,
0,
0,
0,
0,
0,
0,
0,
0,
0,
0,
0,
0,
0,
0,
0,
0,
0,
0,
0,
0,
0,
0,
0,
0,
0,
0,
0,
0,
0,
0,
0,
0,
0,
0,
0,
0,
0,
0,
0,
0,
0,
0,
0,
0,
0,
0,
0,
0,
0,
0,
0,
0,
0,
0,
0,
0,
0,
0,
0,
0,
0,
0,
0,
0,
0,
0,
0,
0,
0,
0,
0,
0,
0,
0,
0,
0,
0,
0,
1,
0,
0,
0,
0,
0,
0,
0,
0,
0,
0,
0,
0,
0,
0,
0,
0,
0,
0,
0,
0,
0,
0,
0,
0,
0,
0,
0,
0,
0,
0,
0,
0,
0,
0,
0,
0,
0,
0,
0,
0,
0,
0,
0,
0,
0,
0,
0,
0,
0,
0,
0,
0,
0,
0,
#ENDOFDATA   :

File: MMM2 Zircon[2][4].msa
#FORMAT      : EMSA/MAS Spectral Data File
#VERSION     : 1.0
#TITLE       : MMM2 Zircon[2][all]
#DATE        : 29-SEP-2025
#TIME        : 01:08
#OWNER       : Unknown
#NPOINTS     : 4096
#NCOLUMNS    : 1
#XUNITS      : eV
#YUNITS      : counts
#DATATYPE    : Y
#XPERCHAN    : 9.99778
#OFFSET      : 1.69135
#BEAMKV      : 15
#SIGNALTYPE  : EDS
#ELEVANGLE   : 35
#AZIMANGLE   : 0
#LIVETIME    : 240.311
#REALTIME    : 257.129
#PROBECUR    : 1.21248
#TAUWIND     : 0
#TDEADLYR    : 0
#TACTLYR     : 0.045
#TALWIND     : 0.025
#CHOFFSET    : 0.0
#XLABEL      : Energy (eV)
#YLABEL      : Counts
#XPOSITION   : -13.64969
#YPOSITION   : 6.9803
#ZPOSITION   : 34.11879
#EDSDET      : SD
##SPECIMEN   : MMM2 Zircon[2][all]
##D2STDCMP   : Zircon,(O:34.9128),(Si:15.3216),(Zr:49.7657),8.0
##DET_HASH   : 12273538-fd48-a23f-0a19-f1e6fa85caef
##CALIB_HASH : 6abaa72c-aa41-8738-0be9-f592914732f3
##WORKING    : 15.0 mm
##DET_NAME   : EDAX All
##DET_MODE   : MediumLE
#SPECTRUM    :
31,
1063,
18016,
6358,
36820,
4599,
5536,
6211,
6849,
7513,
7689,
8162,
48193,
30577,
27036,
93998,
11882,
3457,
4387,
3333,
3168,
3150,
3068,
3086,
2979,
3000,
2751,
2956,
2815,
2645,
2550,
2444,
2337,
2300,
2168,
2191,
2021,
1969,
2044,
1769,
1766,
1707,
1640,
1604,
1561,
1534,
1624,
1344,
1319,
1260,
1218,
1260,
1146,
1142,
1083,
1003,
1118,
1052,
960,
884,
864,
843,
793,
819,
735,
747,
683,
676,
633,
592,
564,
544,
510,
511,
472,
449,
453,
413,
386,
378,
373,
327,
307,
312,
258,
259,
253,
192,
197,
189,
173,
190,
179,
126,
112,
117,
91,
91,
73,
69,
67,
60,
38,
39,
23,
8,
6,
1,
3,
2,
2,
2,
1,
0,
0,
0,
0,
0,
0,
0,
0,
1,
0,
1,
0,
1,
0,
1,
1,
0,
1,
0,
0,
0,
0,
0,
0,
0,
0,
0,
0,
0,
0,
0,
0,
0,
0,
0,
0,
0,
0,
0,
0,
0,
0,
1,
0,
0,
0,
0,
0,
0,
1,
0,
0,
0,
0,
0,
0,
0,
0,
0,
0,
0,
0,
0,
0,
0,
0,
0,
0,
1,
0,
0,
0,
0,
0,
0,
0,
0,
0,
0,
0,
0,
0,
0,
0,
0,
0,
0,
0,
0,
0,
0,
0,
0,
0,
0,
0,
0,
0,
0,
0,
0,
0,
0,
0,
0,
0,
0,
0,
0,
0,
0,
0,
0,
0,
0,
0,
0,
0,
0,
0,
0,
0,
0,
0,
0,
0,
0,
0,
0,
0,
0,
0,
0,
0,
0,
0,
0,
0,
0,
0,
0,
0,
0,
0,
0,
0,
0,
0,
0,
0,
0,
0,
0,
0,
0,
0,
0,
0,
0,
0,
0,
0,
0,
0,
0,
0,
0,
0,
0,
0,
0,
0,
0,
0,
0,
0,
0,
0,
0,
0,
0,
#ENDOFDATA   :

File: MMM2 Zircon[3][4].msa
#FORMAT      : EMSA/MAS Spectral Data File
#VERSION     : 1.0
#TITLE       : MMM2 Zircon[3][all]
#DATE        : 29-SEP-2025
#TIME        : 01:09
#OWNER       : Unknown
#NPOINTS     : 4096
#NCOLUMNS    : 1
#XUNITS      : eV
#YUNITS      : counts
#DATATYPE    : Y
#XPERCHAN    : 9.99778
#OFFSET      : 1.69135
#BEAMKV      : 15
#SIGNALTYPE  : EDS
#ELEVANGLE   : 35
#AZIMANGLE   : 0
#LIVETIME    : 240.273
#REALTIME    : 257.07
#PROBECUR    : 1.21248
#TAUWIND     : 0
#TDEADLYR    : 0
#TACTLYR     : 0.045
#TALWIND     : 0.025
#CHOFFSET    : 0.0
#XLABEL      : Energy (eV)
#YLABEL      : Counts
#XPOSITION   : -13.67668
#YPOSITION   : 6.97872
#ZPOSITION   : 34.11879
#EDSDET      : SD
##SPECIMEN   : MMM2 Zircon[3][all]
##D2STDCMP   : Zircon,(O:34.9128),(Si:15.3216),(Zr:49.7657),8.0
##DET_HASH   : 12273538-fd48-a23f-0a19-f1e6fa85caef
##CALIB_HASH : 6abaa72c-aa41-8738-0be9-f592914732f3
##WORKING    : 15.0 mm
##DET_NAME   : EDAX All
##DET_MODE   : MediumLE
#SPECTRUM    :
24,
1019,
17979,
6355,
36716,
4542,
5386,
6189,
6942,
7483,
7740,
8033,
48137,
30325,
26523,
93217,
11687,
3682,
4411,
3217,
3087,
3147,
3012,
3081,
3049,
3080,
2853,
2891,
2812,
2701,
2625,
2476,
2304,
2168,
2239,
2166,
2071,
1950,
2022,
1882,
1806,
1633,
1691,
1583,
1590,
1474,
1582,
1342,
1341,
1235,
1294,
1242,
1210,
1174,
1101,
1049,
1055,
1012,
897,
927,
836,
804,
760,
792,
780,
713,
719,
638,
630,
622,
550,
496,
540,
497,
500,
473,
434,
409,
394,
357,
364,
340,
291,
295,
253,
255,
217,
212,
205,
197,
188,
165,
150,
134,
131,
109,
90,
83,
86,
64,
68,
53,
39,
28,
19,
22,
11,
3,
0,
0,
0,
0,
2,
1,
0,
0,
0,
0,
0,
1,
0,
1,
0,
0,
2,
0,
1,
1,
0,
0,
0,
0,
0,
0,
0,
0,
0,
0,
0,
1,
0,
0,
0,
0,
0,
0,
0,
0,
0,
0,
0,
1,
0,
0,
1,
0,
0,
0,
0,
0,
0,
0,
0,
0,
0,
0,
0,
0,
0,
0,
0,
0,
0,
0,
0,
0,
0,
0,
0,
0,
0,
0,
0,
0,
0,
0,
0,
0,
0,
0,
0,
0,
0,
0,
0,
0,
0,
0,
0,
0,
0,
0,
0,
0,
0,
0,
0,
0,
0,
0,
0,
0,
0,
0,
0,
0,
0,
0,
0,
0,
0,
0,
0,
0,
0,
0,
0,
0,
0,
0,
0,
0,
0,
0,
0,
0,
0,
0,
0,
0,
0,
0,
0,
0,
0,
0,
0,
0,
0,
0,
0,
0,
0,
0,
0,
0,
0,
0,
0,
0,
0,
0,
0,
0,
0,
0,
0,
0,
0,
0,
0,
0,
0,
0,
0,
0,
0,
0,
0,
0,
0,
0,
0,
0,
0,
0,
0,
0,
0,
0,
0,
0,
0,
0,
#ENDOFDATA   :