Folder: spex_quant/N132962/Quantification/15 keV/Mengason MM2 (part 15)

File: MMM2 Zircon[4][4].msa
#FORMAT      : EMSA/MAS Spectral Data File
#VERSION     : 1.0
#TITLE       : MMM2 Zircon[4][all]
#DATE        : 29-SEP-2025
#TIME        : 01:10
#OWNER       : Unknown
#NPOINTS     : 4096
#NCOLUMNS    : 1
#XUNITS      : eV
#YUNITS      : counts
#DATATYPE    : Y
#XPERCHAN    : 9.99778
#OFFSET      : 1.69135
#BEAMKV      : 15
#SIGNALTYPE  : EDS
#ELEVANGLE   : 35
#AZIMANGLE   : 0
#LIVETIME    : 240.267
#REALTIME    : 257.075
#PROBECUR    : 1.21247
#TAUWIND     : 0
#TDEADLYR    : 0
#TACTLYR     : 0.045
#TALWIND     : 0.025
#CHOFFSET    : 0.0
#XLABEL      : Energy (eV)
#YLABEL      : Counts
#XPOSITION   : -13.62661
#YPOSITION   : 6.97384
#ZPOSITION   : 34.11879
#EDSDET      : SD
##SPECIMEN   : MMM2 Zircon[4][all]
##D2STDCMP   : Zircon,(O:34.9128),(Si:15.3216),(Zr:49.7657),8.0
##DET_HASH   : 12273538-fd48-a23f-0a19-f1e6fa85caef
##CALIB_HASH : 6abaa72c-aa41-8738-0be9-f592914732f3
##WORKING    : 15.0 mm
##DET_NAME   : EDAX All
##DET_MODE   : MediumLE
#SPECTRUM    :
32,
1017,
18010,
6541,
36643,
4636,
5480,
6328,
6928,
7548,
7579,
8218,
48391,
30289,
26628,
93855,
11924,
3557,
4410,
3325,
3231,
3104,
3145,
3083,
2970,
3120,
2856,
3045,
2720,
2716,
2506,
2475,
2273,
2216,
2229,
2142,
2004,
1980,
1906,
1825,
1823,
1718,
1742,
1611,
1610,
1469,
1474,
1352,
1346,
1361,
1209,
1164,
1151,
1155,
1102,
1041,
1141,
1011,
917,
902,
863,
851,
824,
802,
768,
701,
704,
629,
591,
609,
571,
568,
512,
514,
477,
457,
455,
426,
370,
381,
375,
324,
345,
291,
249,
230,
242,
208,
209,
172,
173,
167,
135,
144,
110,
122,
98,
87,
83,
64,
62,
39,
44,
20,
23,
23,
5,
2,
0,
1,
0,
2,
2,
0,
0,
1,
3,
1,
1,
0,
0,
0,
0,
0,
0,
1,
0,
0,
0,
0,
0,
0,
0,
0,
0,
0,
0,
1,
0,
0,
0,
0,
0,
0,
0,
0,
0,
0,
0,
0,
0,
0,
0,
0,
0,
0,
0,
0,
0,
0,
0,
0,
0,
0,
0,
0,
0,
0,
0,
0,
0,
0,
0,
0,
0,
0,
0,
0,
0,
0,
0,
0,
0,
0,
0,
0,
0,
0,
0,
0,
0,
0,
0,
0,
0,
0,
0,
0,
0,
0,
0,
0,
0,
0,
0,
0,
0,
0,
0,
0,
0,
0,
0,
0,
0,
0,
0,
0,
0,
0,
0,
0,
0,
0,
0,
0,
0,
0,
0,
0,
0,
0,
0,
0,
0,
0,
0,
0,
0,
0,
0,
0,
0,
0,
0,
0,
0,
0,
0,
0,
0,
0,
0,
0,
0,
0,
0,
0,
0,
0,
0,
0,
0,
0,
0,
0,
0,
0,
0,
0,
0,
0,
0,
0,
0,
0,
0,
0,
0,
0,
0,
0,
0,
0,
0,
0,
0,
0,
0,
0,
0,
0,
0,
0,
#ENDOFDATA   :

File: MMM2 Zircon[5][4].msa
#FORMAT      : EMSA/MAS Spectral Data File
#VERSION     : 1.0
#TITLE       : MMM2 Zircon[5][all]
#DATE        : 29-SEP-2025
#TIME        : 01:11
#OWNER       : Unknown
#NPOINTS     : 4096
#NCOLUMNS    : 1
#XUNITS      : eV
#YUNITS      : counts
#DATATYPE    : Y
#XPERCHAN    : 9.99778
#OFFSET      : 1.69135
#BEAMKV      : 15
#SIGNALTYPE  : EDS
#ELEVANGLE   : 35
#AZIMANGLE   : 0
#LIVETIME    : 240.306
#REALTIME    : 257.1283
#PROBECUR    : 1.21247
#TAUWIND     : 0
#TDEADLYR    : 0
#TACTLYR     : 0.045
#TALWIND     : 0.025
#CHOFFSET    : 0.0
#XLABEL      : Energy (eV)
#YLABEL      : Counts
#XPOSITION   : -13.63576
#YPOSITION   : 6.99326
#ZPOSITION   : 34.11879
#EDSDET      : SD
##SPECIMEN   : MMM2 Zircon[5][all]
##D2STDCMP   : Zircon,(O:34.9128),(Si:15.3216),(Zr:49.7657),8.0
##DET_HASH   : 12273538-fd48-a23f-0a19-f1e6fa85caef
##CALIB_HASH : 6abaa72c-aa41-8738-0be9-f592914732f3
##WORKING    : 15.0 mm
##DET_NAME   : EDAX All
##DET_MODE   : MediumLE
#SPECTRUM    :
32,
1045,
18035,
6541,
37208,
4674,
5568,
6244,
7006,
7388,
7552,
8121,
48288,
30411,
26526,
94099,
11795,
3665,
4270,
3217,
3144,
3054,
3156,
2944,
2986,
2983,
2863,
3076,
2822,
2689,
2651,
2410,
2358,
2232,
2233,
2105,
2081,
1996,
1904,
1833,
1818,
1726,
1661,
1644,
1511,
1551,
1470,
1414,
1355,
1344,
1246,
1201,
1153,
1151,
1088,
1058,
1201,
1061,
942,
892,
875,
835,
806,
761,
748,
711,
671,
721,
622,
615,
547,
496,
496,
474,
444,
490,
435,
393,
393,
375,
297,
320,
327,
295,
288,
251,
237,
214,
210,
189,
165,
160,
127,
133,
136,
108,
100,
83,
76,
71,
65,
50,
50,
35,
22,
20,
8,
4,
1,
2,
1,
0,
0,
0,
1,
0,
1,
1,
0,
1,
2,
0,
0,
0,
0,
0,
0,
0,
0,
0,
0,
0,
0,
1,
0,
0,
0,
0,
0,
0,
0,
0,
0,
0,
0,
0,
0,
1,
0,
0,
0,
0,
0,
0,
0,
0,
0,
0,
0,
0,
0,
0,
0,
0,
0,
0,
0,
0,
0,
0,
0,
0,
0,
0,
0,
0,
0,
0,
0,
0,
0,
0,
0,
0,
0,
0,
0,
0,
0,
0,
0,
0,
0,
0,
0,
0,
0,
0,
0,
0,
0,
0,
0,
0,
0,
0,
0,
0,
0,
0,
0,
0,
0,
0,
0,
0,
0,
0,
0,
0,
0,
0,
0,
0,
0,
0,
0,
0,
0,
0,
0,
0,
0,
0,
0,
0,
0,
0,
0,
0,
0,
0,
0,
0,
0,
0,
0,
0,
0,
0,
0,
0,
0,
0,
0,
0,
0,
0,
0,
0,
0,
0,
0,
0,
0,
0,
0,
0,
0,
0,
0,
0,
0,
0,
0,
0,
0,
0,
0,
0,
0,
0,
0,
0,
0,
0,
0,
0,
0,
0,
0,
0,
0,
0,
#ENDOFDATA   :

File: MMM2 Zircon[6][4].msa
#FORMAT      : EMSA/MAS Spectral Data File
#VERSION     : 1.0
#TITLE       : MMM2 Zircon[6][all]
#DATE        : 29-SEP-2025
#TIME        : 01:12
#OWNER       : Unknown
#NPOINTS     : 4096
#NCOLUMNS    : 1
#XUNITS      : eV
#YUNITS      : counts
#DATATYPE    : Y
#XPERCHAN    : 9.99778
#OFFSET      : 1.69135
#BEAMKV      : 15
#SIGNALTYPE  : EDS
#ELEVANGLE   : 35
#AZIMANGLE   : 0
#LIVETIME    : 240.3727
#REALTIME    : 257.189
#PROBECUR    : 1.21248
#TAUWIND     : 0
#TDEADLYR    : 0
#TACTLYR     : 0.045
#TALWIND     : 0.025
#CHOFFSET    : 0.0
#XLABEL      : Energy (eV)
#YLABEL      : Counts
#XPOSITION   : -13.65682
#YPOSITION   : 6.95009
#ZPOSITION   : 34.11879
#EDSDET      : SD
##SPECIMEN   : MMM2 Zircon[6][all]
##D2STDCMP   : Zircon,(O:34.9128),(Si:15.3216),(Zr:49.7657),8.0
##DET_HASH   : 12273538-fd48-a23f-0a19-f1e6fa85caef
##CALIB_HASH : 6abaa72c-aa41-8738-0be9-f592914732f3
##WORKING    : 15.0 mm
##DET_NAME   : EDAX All
##DET_MODE   : MediumLE
#SPECTRUM    :
28,
1050,
18285,
6455,
36589,
4741,
5364,
6144,
6771,
7375,
7720,
8026,
48550,
30459,
26596,
93207,
11674,
3533,
4335,
3328,
3286,
3148,
3169,
2973,
3021,
2979,
2901,
2999,
2815,
2702,
2598,
2512,
2319,
2211,
2165,
2140,
2042,
2076,
1879,
1874,
1854,
1642,
1735,
1626,
1528,
1505,
1471,
1386,
1386,
1308,
1243,
1224,
1117,
1084,
1133,
1071,
1105,
987,
892,
868,
844,
814,
802,
792,
772,
724,
687,
667,
673,
606,
573,
564,
543,
499,
471,
479,
453,
409,
410,
371,
337,
337,
281,
297,
273,
257,
243,
179,
210,
174,
176,
134,
138,
132,
110,
99,
102,
94,
77,
67,
59,
45,
41,
28,
18,
10,
9,
2,
1,
1,
0,
0,
1,
1,
1,
1,
1,
1,
0,
0,
0,
2,
0,
0,
0,
0,
0,
1,
0,
0,
0,
0,
2,
0,
0,
0,
0,
0,
0,
0,
0,
0,
0,
0,
0,
1,
0,
0,
0,
0,
0,
0,
0,
0,
0,
0,
0,
0,
0,
0,
0,
0,
0,
0,
0,
0,
0,
0,
0,
0,
0,
0,
0,
0,
0,
0,
0,
0,
0,
0,
0,
0,
0,
0,
0,
0,
0,
0,
0,
0,
0,
0,
0,
0,
0,
0,
0,
0,
0,
0,
0,
0,
0,
0,
0,
0,
0,
0,
0,
0,
0,
0,
0,
0,
0,
0,
0,
0,
0,
0,
0,
0,
0,
0,
0,
0,
0,
0,
0,
0,
0,
0,
0,
0,
0,
0,
0,
0,
0,
0,
0,
0,
0,
0,
0,
0,
0,
0,
0,
0,
0,
0,
0,
0,
0,
0,
0,
0,
0,
0,
0,
0,
0,
0,
0,
0,
0,
0,
0,
0,
0,
0,
0,
0,
0,
0,
0,
0,
0,
0,
0,
0,
0,
0,
0,
0,
0,
0,
0,
0,
0,
0,
0,
0,
#ENDOFDATA   :

File: MMM2 Zircon[7][4].msa
#FORMAT      : EMSA/MAS Spectral Data File
#VERSION     : 1.0
#TITLE       : MMM2 Zircon[7][all]
#DATE        : 29-SEP-2025
#TIME        : 01:13
#OWNER       : Unknown
#NPOINTS     : 4096
#NCOLUMNS    : 1
#XUNITS      : eV
#YUNITS      : counts
#DATATYPE    : Y
#XPERCHAN    : 9.99778
#OFFSET      : 1.69135
#BEAMKV      : 15
#SIGNALTYPE  : EDS
#ELEVANGLE   : 35
#AZIMANGLE   : 0
#LIVETIME    : 240.245
#REALTIME    : 257.0704
#PROBECUR    : 1.21248
#TAUWIND     : 0
#TDEADLYR    : 0
#TACTLYR     : 0.045
#TALWIND     : 0.025
#CHOFFSET    : 0.0
#XLABEL      : Energy (eV)
#YLABEL      : Counts
#XPOSITION   : -13.63907
#YPOSITION   : 7.01785
#ZPOSITION   : 34.11879
#EDSDET      : SD
##SPECIMEN   : MMM2 Zircon[7][all]
##D2STDCMP   : Zircon,(O:34.9128),(Si:15.3216),(Zr:49.7657),8.0
##DET_HASH   : 12273538-fd48-a23f-0a19-f1e6fa85caef
##CALIB_HASH : 6abaa72c-aa41-8738-0be9-f592914732f3
##WORKING    : 15.0 mm
##DET_NAME   : EDAX All
##DET_MODE   : MediumLE
#SPECTRUM    :
27,
991,
18138,
6414,
36987,
4620,
5439,
6221,
7074,
7145,
7650,
8241,
48208,
30700,
27041,
93618,
11798,
3607,
4445,
3258,
3151,
3094,
3057,
3017,
2995,
3037,
2927,
2941,
2765,
2665,
2605,
2461,
2404,
2312,
2229,
2172,
2063,
1987,
1910,
1900,
1857,
1669,
1634,
1736,
1630,
1537,
1486,
1360,
1337,
1239,
1321,
1217,
1107,
1168,
1066,
1057,
1136,
1019,
1005,
863,
840,
820,
802,
794,
797,
764,
684,
639,
613,
588,
566,
536,
512,
517,
481,
471,
405,
412,
405,
337,
323,
311,
338,
280,
294,
245,
272,
232,
209,
177,
165,
172,
172,
141,
128,
104,
101,
96,
75,
67,
55,
59,
35,
27,
27,
22,
11,
0,
3,
0,
3,
0,
0,
3,
1,
1,
0,
0,
0,
0,
1,
0,
1,
0,
0,
0,
0,
0,
0,
1,
0,
0,
0,
0,
1,
0,
0,
0,
0,
0,
0,
0,
0,
0,
0,
0,
0,
0,
0,
0,
0,
0,
0,
1,
0,
0,
0,
0,
0,
0,
1,
0,
0,
0,
0,
0,
0,
0,
0,
0,
0,
0,
0,
0,
0,
0,
0,
0,
0,
0,
0,
0,
0,
0,
0,
0,
0,
0,
0,
0,
0,
0,
0,
0,
0,
0,
0,
0,
0,
0,
0,
0,
0,
0,
0,
0,
0,
0,
0,
0,
0,
0,
0,
0,
0,
0,
0,
0,
0,
0,
0,
0,
0,
0,
0,
0,
0,
0,
0,
0,
0,
0,
0,
0,
0,
0,
0,
0,
0,
0,
0,
0,
0,
0,
0,
0,
0,
0,
0,
0,
0,
0,
0,
0,
0,
0,
0,
0,
0,
0,
0,
0,
0,
0,
0,
0,
0,
0,
0,
0,
0,
0,
0,
0,
0,
0,
0,
0,
0,
0,
0,
0,
0,
0,
0,
0,
0,
0,
0,
0,
0,
0,
0,
0,
#ENDOFDATA   :