Folder: spex_quant/N132962/Quantification/15 keV/Mengason MM2 (part 12)

File: MMM2 Uvarovite[0][4].msa
#FORMAT      : EMSA/MAS Spectral Data File
#VERSION     : 1.0
#TITLE       : MMM2 Uvarovite[0][all]
#DATE        : 28-SEP-2025
#TIME        : 22:09
#OWNER       : Unknown
#NPOINTS     : 4096
#NCOLUMNS    : 1
#XUNITS      : eV
#YUNITS      : counts
#DATATYPE    : Y
#XPERCHAN    : 9.99778
#OFFSET      : 1.69135
#BEAMKV      : 15
#SIGNALTYPE  : EDS
#ELEVANGLE   : 35
#AZIMANGLE   : 0
#LIVETIME    : 240.137
#REALTIME    : 254.306
#PROBECUR    : 1.21223
#TAUWIND     : 0
#TDEADLYR    : 0
#TACTLYR     : 0.045
#TALWIND     : 0.025
#CHOFFSET    : 0.0
#XLABEL      : Energy (eV)
#YLABEL      : Counts
#XPOSITION   : -9.28008
#YPOSITION   : -0.10495
#ZPOSITION   : 34.11879
#EDSDET      : SD
##SPECIMEN   : MMM2 Uvarovite[0][all]
##DET_HASH   : 12273538-fd48-a23f-0a19-f1e6fa85caef
##CALIB_HASH : 6abaa72c-aa41-8738-0be9-f592914732f3
##WORKING    : 15.0 mm
##DET_NAME   : EDAX All
##DET_MODE   : MediumLE
#SPECTRUM    :
17,
254,
19591,
6517,
47726,
3723,
3448,
4077,
4389,
5150,
6821,
13578,
41983,
20624,
4276,
3280,
3718,
3228,
3029,
2876,
2820,
2713,
2563,
2516,
2387,
2821,
45750,
15671,
3673,
8185,
1789,
1500,
3224,
1658,
1410,
1814,
1418,
1310,
5753,
13735,
1165,
1103,
2305,
1918,
964,
1067,
1543,
849,
785,
791,
812,
814,
730,
657,
661,
585,
596,
592,
569,
531,
452,
438,
400,
437,
397,
395,
373,
386,
362,
329,
282,
309,
326,
267,
251,
242,
251,
204,
207,
188,
192,
191,
141,
153,
145,
132,
127,
129,
95,
107,
75,
83,
69,
58,
52,
47,
48,
45,
38,
34,
32,
20,
23,
16,
18,
7,
9,
5,
1,
1,
0,
1,
1,
0,
1,
1,
0,
0,
0,
0,
0,
1,
0,
0,
0,
0,
0,
0,
0,
0,
0,
0,
0,
0,
0,
0,
2,
0,
0,
0,
0,
0,
0,
0,
0,
0,
0,
0,
0,
0,
0,
0,
0,
0,
0,
0,
0,
0,
0,
0,
0,
0,
0,
0,
0,
0,
0,
0,
0,
0,
0,
0,
0,
0,
0,
0,
0,
0,
0,
0,
0,
0,
0,
0,
0,
0,
0,
0,
0,
0,
0,
0,
0,
0,
0,
0,
0,
0,
0,
0,
0,
0,
0,
0,
0,
0,
0,
0,
0,
0,
0,
0,
0,
0,
0,
0,
0,
0,
0,
0,
0,
0,
0,
0,
0,
0,
0,
0,
0,
0,
0,
0,
0,
0,
0,
0,
0,
0,
0,
0,
0,
0,
0,
0,
0,
0,
0,
0,
0,
0,
0,
0,
0,
0,
0,
0,
0,
0,
0,
0,
0,
0,
0,
0,
0,
0,
0,
0,
0,
0,
0,
0,
0,
0,
0,
0,
0,
0,
0,
0,
0,
0,
0,
0,
0,
0,
0,
0,
0,
0,
0,
0,
0,
0,
#ENDOFDATA   :

File: MMM2 Uvarovite[1][4].msa
#FORMAT      : EMSA/MAS Spectral Data File
#VERSION     : 1.0
#TITLE       : MMM2 Uvarovite[1][all]
#DATE        : 28-SEP-2025
#TIME        : 22:10
#OWNER       : Unknown
#NPOINTS     : 4096
#NCOLUMNS    : 1
#XUNITS      : eV
#YUNITS      : counts
#DATATYPE    : Y
#XPERCHAN    : 9.99778
#OFFSET      : 1.69135
#BEAMKV      : 15
#SIGNALTYPE  : EDS
#ELEVANGLE   : 35
#AZIMANGLE   : 0
#LIVETIME    : 240.192
#REALTIME    : 254.376
#PROBECUR    : 1.21223
#TAUWIND     : 0
#TDEADLYR    : 0
#TACTLYR     : 0.045
#TALWIND     : 0.025
#CHOFFSET    : 0.0
#XLABEL      : Energy (eV)
#YLABEL      : Counts
#XPOSITION   : -9.27452
#YPOSITION   : -0.10869
#ZPOSITION   : 34.11879
#EDSDET      : SD
##SPECIMEN   : MMM2 Uvarovite[1][all]
##DET_HASH   : 12273538-fd48-a23f-0a19-f1e6fa85caef
##CALIB_HASH : 6abaa72c-aa41-8738-0be9-f592914732f3
##WORKING    : 15.0 mm
##DET_NAME   : EDAX All
##DET_MODE   : MediumLE
#SPECTRUM    :
26,
293,
19469,
6720,
47959,
3717,
3370,
4035,
4493,
5261,
6766,
13484,
42066,
20968,
4375,
3339,
3494,
3108,
3070,
2886,
2814,
2642,
2551,
2567,
2332,
2737,
45829,
15670,
3860,
8070,
1720,
1615,
3246,
1659,
1382,
1830,
1388,
1323,
5814,
13763,
1193,
1150,
2459,
1919,
943,
1107,
1530,
824,
807,
717,
801,
757,
702,
630,
636,
681,
578,
546,
516,
536,
473,
477,
466,
401,
422,
416,
374,
370,
326,
363,
315,
319,
305,
291,
270,
265,
242,
241,
217,
222,
162,
185,
147,
167,
140,
127,
153,
127,
144,
112,
102,
83,
90,
86,
64,
66,
55,
37,
38,
29,
25,
18,
20,
16,
13,
11,
8,
3,
1,
1,
0,
0,
1,
0,
0,
0,
1,
0,
0,
0,
1,
0,
0,
2,
0,
0,
0,
0,
0,
0,
0,
0,
0,
0,
0,
0,
0,
0,
0,
0,
0,
0,
0,
0,
0,
1,
0,
0,
0,
0,
0,
0,
0,
0,
0,
0,
0,
0,
0,
0,
0,
0,
0,
0,
0,
0,
0,
0,
0,
0,
0,
0,
0,
0,
0,
0,
0,
0,
0,
0,
0,
0,
0,
0,
0,
0,
0,
0,
0,
0,
0,
0,
0,
0,
0,
0,
0,
0,
0,
0,
0,
0,
0,
0,
0,
0,
0,
0,
0,
0,
0,
0,
0,
0,
0,
0,
0,
0,
0,
0,
0,
0,
0,
0,
0,
0,
0,
0,
0,
0,
0,
0,
0,
0,
0,
0,
0,
0,
0,
0,
0,
0,
0,
0,
0,
0,
0,
0,
0,
0,
0,
0,
0,
0,
0,
0,
0,
0,
0,
0,
0,
0,
0,
0,
0,
0,
0,
0,
0,
0,
0,
0,
0,
0,
0,
0,
0,
0,
0,
0,
0,
0,
0,
0,
0,
0,
0,
0,
0,
0,
0,
0,
0,
0,
#ENDOFDATA   :

File: MMM2 Uvarovite[2][4].msa
#FORMAT      : EMSA/MAS Spectral Data File
#VERSION     : 1.0
#TITLE       : MMM2 Uvarovite[2][all]
#DATE        : 28-SEP-2025
#TIME        : 22:11
#OWNER       : Unknown
#NPOINTS     : 4096
#NCOLUMNS    : 1
#XUNITS      : eV
#YUNITS      : counts
#DATATYPE    : Y
#XPERCHAN    : 9.99778
#OFFSET      : 1.69135
#BEAMKV      : 15
#SIGNALTYPE  : EDS
#ELEVANGLE   : 35
#AZIMANGLE   : 0
#LIVETIME    : 240.189
#REALTIME    : 254.372
#PROBECUR    : 1.21223
#TAUWIND     : 0
#TDEADLYR    : 0
#TACTLYR     : 0.045
#TALWIND     : 0.025
#CHOFFSET    : 0.0
#XLABEL      : Energy (eV)
#YLABEL      : Counts
#XPOSITION   : -9.28425
#YPOSITION   : -0.12136
#ZPOSITION   : 34.11879
#EDSDET      : SD
##SPECIMEN   : MMM2 Uvarovite[2][all]
##DET_HASH   : 12273538-fd48-a23f-0a19-f1e6fa85caef
##CALIB_HASH : 6abaa72c-aa41-8738-0be9-f592914732f3
##WORKING    : 15.0 mm
##DET_NAME   : EDAX All
##DET_MODE   : MediumLE
#SPECTRUM    :
29,
276,
19217,
6538,
47620,
3801,
3492,
3926,
4476,
5120,
6760,
13861,
42399,
20440,
4371,
3426,
3658,
2989,
3060,
2859,
2794,
2697,
2587,
2532,
2423,
2789,
45532,
15614,
3730,
8024,
1873,
1545,
3138,
1550,
1439,
1790,
1379,
1279,
5892,
13888,
1140,
1096,
2352,
1953,
931,
1137,
1498,
891,
780,
759,
833,
757,
730,
717,
616,
632,
585,
544,
554,
515,
502,
502,
466,
445,
416,
416,
373,
398,
362,
287,
311,
308,
255,
257,
278,
234,
233,
237,
232,
176,
190,
164,
164,
146,
138,
161,
129,
119,
109,
88,
105,
77,
72,
66,
65,
59,
62,
38,
38,
38,
39,
19,
24,
30,
14,
11,
4,
1,
0,
1,
1,
0,
1,
0,
1,
1,
0,
0,
0,
0,
0,
1,
0,
0,
0,
0,
0,
0,
0,
0,
0,
0,
0,
1,
0,
0,
0,
0,
0,
0,
0,
0,
0,
0,
0,
1,
0,
0,
0,
0,
0,
0,
0,
0,
0,
0,
0,
0,
0,
0,
0,
0,
0,
0,
0,
0,
0,
0,
0,
0,
0,
0,
0,
0,
0,
0,
0,
0,
0,
0,
0,
0,
0,
0,
0,
0,
0,
0,
0,
0,
0,
0,
0,
0,
0,
0,
0,
0,
0,
0,
0,
0,
0,
0,
0,
0,
0,
0,
0,
0,
0,
0,
0,
0,
0,
0,
0,
0,
0,
0,
0,
0,
0,
0,
0,
0,
0,
0,
0,
0,
0,
0,
0,
0,
0,
0,
0,
0,
0,
0,
0,
0,
0,
0,
0,
0,
0,
0,
0,
0,
0,
0,
0,
0,
0,
0,
0,
0,
0,
0,
0,
0,
0,
0,
0,
0,
0,
0,
0,
0,
0,
0,
0,
0,
0,
0,
0,
0,
0,
0,
0,
0,
0,
0,
0,
0,
0,
0,
0,
0,
0,
0,
0,
0,
#ENDOFDATA   :

File: MMM2 Uvarovite[3][4].msa
#FORMAT      : EMSA/MAS Spectral Data File
#VERSION     : 1.0
#TITLE       : MMM2 Uvarovite[3][all]
#DATE        : 28-SEP-2025
#TIME        : 22:12
#OWNER       : Unknown
#NPOINTS     : 4096
#NCOLUMNS    : 1
#XUNITS      : eV
#YUNITS      : counts
#DATATYPE    : Y
#XPERCHAN    : 9.99778
#OFFSET      : 1.69135
#BEAMKV      : 15
#SIGNALTYPE  : EDS
#ELEVANGLE   : 35
#AZIMANGLE   : 0
#LIVETIME    : 240.097
#REALTIME    : 254.244
#PROBECUR    : 1.21223
#TAUWIND     : 0
#TDEADLYR    : 0
#TACTLYR     : 0.045
#TALWIND     : 0.025
#CHOFFSET    : 0.0
#XLABEL      : Energy (eV)
#YLABEL      : Counts
#XPOSITION   : -9.27834
#YPOSITION   : -0.06469
#ZPOSITION   : 34.11879
#EDSDET      : SD
##SPECIMEN   : MMM2 Uvarovite[3][all]
##DET_HASH   : 12273538-fd48-a23f-0a19-f1e6fa85caef
##CALIB_HASH : 6abaa72c-aa41-8738-0be9-f592914732f3
##WORKING    : 15.0 mm
##DET_NAME   : EDAX All
##DET_MODE   : MediumLE
#SPECTRUM    :
22,
265,
19579,
6579,
47350,
3826,
3312,
4013,
4423,
5084,
6786,
13722,
42376,
20782,
4339,
3411,
3504,
3101,
3022,
2886,
2811,
2643,
2568,
2500,
2350,
2777,
45308,
15717,
3737,
8312,
1782,
1539,
3028,
1599,
1374,
1772,
1395,
1332,
5701,
13744,
1152,
1140,
2419,
1953,
954,
1109,
1563,
871,
842,
728,
812,
750,
697,
694,
629,
616,
576,
543,
535,
496,
491,
493,
442,
420,
414,
455,
357,
408,
367,
326,
326,
288,
277,
294,
253,
239,
237,
237,
216,
212,
183,
149,
149,
168,
144,
145,
125,
108,
112,
110,
101,
89,
96,
64,
69,
59,
47,
45,
39,
41,
45,
31,
17,
13,
13,
7,
5,
0,
2,
1,
0,
0,
0,
0,
0,
0,
0,
0,
0,
0,
1,
0,
1,
0,
0,
0,
0,
1,
0,
0,
0,
0,
0,
0,
0,
0,
1,
0,
0,
0,
0,
0,
0,
0,
0,
0,
0,
0,
0,
0,
0,
0,
0,
0,
0,
0,
0,
0,
0,
0,
0,
0,
0,
0,
0,
0,
0,
0,
0,
0,
0,
0,
0,
0,
0,
0,
0,
0,
0,
0,
0,
0,
0,
0,
0,
0,
0,
0,
0,
0,
0,
0,
0,
0,
0,
0,
0,
0,
0,
0,
0,
0,
0,
0,
0,
0,
0,
0,
0,
0,
0,
0,
0,
0,
0,
0,
0,
0,
0,
0,
0,
0,
0,
0,
0,
0,
0,
0,
0,
0,
0,
0,
0,
0,
0,
0,
0,
0,
0,
0,
0,
0,
0,
0,
0,
0,
0,
0,
0,
0,
0,
0,
0,
0,
0,
0,
0,
0,
0,
0,
0,
0,
0,
0,
0,
0,
0,
0,
0,
0,
0,
0,
0,
0,
0,
0,
0,
0,
0,
0,
0,
0,
0,
0,
0,
0,
0,
0,
0,
0,
0,
0,
0,
0,
#ENDOFDATA   :

File: MMM2 Uvarovite[4][4].msa
#FORMAT      : EMSA/MAS Spectral Data File
#VERSION     : 1.0
#TITLE       : MMM2 Uvarovite[4][all]
#DATE        : 28-SEP-2025
#TIME        : 22:13
#OWNER       : Unknown
#NPOINTS     : 4096
#NCOLUMNS    : 1
#XUNITS      : eV
#YUNITS      : counts
#DATATYPE    : Y
#XPERCHAN    : 9.99778
#OFFSET      : 1.69135
#BEAMKV      : 15
#SIGNALTYPE  : EDS
#ELEVANGLE   : 35
#AZIMANGLE   : 0
#LIVETIME    : 240.241
#REALTIME    : 254.4372
#PROBECUR    : 1.21223
#TAUWIND     : 0
#TDEADLYR    : 0
#TACTLYR     : 0.045
#TALWIND     : 0.025
#CHOFFSET    : 0.0
#XLABEL      : Energy (eV)
#YLABEL      : Counts
#XPOSITION   : -9.2734
#YPOSITION   : -0.13848
#ZPOSITION   : 34.11879
#EDSDET      : SD
##SPECIMEN   : MMM2 Uvarovite[4][all]
##DET_HASH   : 12273538-fd48-a23f-0a19-f1e6fa85caef
##CALIB_HASH : 6abaa72c-aa41-8738-0be9-f592914732f3
##WORKING    : 15.0 mm
##DET_NAME   : EDAX All
##DET_MODE   : MediumLE
#SPECTRUM    :
32,
275,
19475,
6551,
48056,
3874,
3602,
4061,
4553,
5236,
6774,
13871,
42483,
20740,
4405,
3305,
3477,
2992,
3083,
2900,
2790,
2656,
2618,
2510,
2426,
2778,
45433,
15903,
3742,
8151,
1767,
1562,
2974,
1674,
1399,
1774,
1398,
1335,
5685,
13566,
1230,
1165,
2317,
1991,
929,
1175,
1574,
824,
838,
756,
800,
765,
681,
767,
676,
644,
574,
568,
538,
556,
495,
493,
429,
454,
429,
364,
370,
380,
368,
344,
328,
313,
289,
271,
251,
241,
208,
248,
194,
175,
186,
159,
161,
166,
151,
140,
125,
111,
102,
83,
80,
94,
86,
64,
65,
57,
45,
49,
28,
34,
28,
27,
21,
15,
15,
8,
2,
0,
1,
0,
0,
0,
0,
0,
0,
0,
0,
0,
0,
0,
0,
0,
0,
0,
0,
0,
0,
0,
1,
1,
0,
0,
0,
0,
0,
0,
0,
0,
0,
0,
0,
0,
0,
0,
0,
0,
0,
0,
0,
0,
0,
0,
0,
0,
0,
0,
0,
0,
0,
0,
0,
0,
0,
0,
0,
0,
0,
0,
0,
0,
0,
0,
0,
0,
0,
0,
0,
0,
0,
0,
0,
0,
0,
0,
0,
0,
0,
0,
0,
0,
0,
0,
0,
0,
0,
0,
0,
0,
0,
0,
0,
0,
0,
0,
0,
0,
0,
0,
0,
0,
0,
0,
0,
0,
0,
0,
0,
0,
0,
0,
0,
0,
0,
0,
0,
0,
0,
0,
0,
0,
0,
0,
0,
0,
0,
0,
0,
0,
0,
0,
0,
0,
0,
0,
0,
0,
0,
0,
0,
0,
0,
0,
0,
0,
0,
0,
0,
0,
0,
0,
0,
0,
0,
0,
0,
0,
0,
0,
0,
0,
0,
0,
0,
0,
0,
0,
0,
0,
0,
0,
0,
0,
0,
0,
0,
0,
0,
0,
0,
0,
0,
0,
0,
0,
#ENDOFDATA   :

File: MMM2 Uvarovite[5][4].msa
#FORMAT      : EMSA/MAS Spectral Data File
#VERSION     : 1.0
#TITLE       : MMM2 Uvarovite[5][all]
#DATE        : 28-SEP-2025
#TIME        : 22:14
#OWNER       : Unknown
#NPOINTS     : 4096
#NCOLUMNS    : 1
#XUNITS      : eV
#YUNITS      : counts
#DATATYPE    : Y
#XPERCHAN    : 9.99778
#OFFSET      : 1.69135
#BEAMKV      : 15
#SIGNALTYPE  : EDS
#ELEVANGLE   : 35
#AZIMANGLE   : 0
#LIVETIME    : 240.095
#REALTIME    : 254.257
#PROBECUR    : 1.21223
#TAUWIND     : 0
#TDEADLYR    : 0
#TACTLYR     : 0.045
#TALWIND     : 0.025
#CHOFFSET    : 0.0
#XLABEL      : Energy (eV)
#YLABEL      : Counts
#XPOSITION   : -9.28347
#YPOSITION   : -0.08931
#ZPOSITION   : 34.11879
#EDSDET      : SD
##SPECIMEN   : MMM2 Uvarovite[5][all]
##DET_HASH   : 12273538-fd48-a23f-0a19-f1e6fa85caef
##CALIB_HASH : 6abaa72c-aa41-8738-0be9-f592914732f3
##WORKING    : 15.0 mm
##DET_NAME   : EDAX All
##DET_MODE   : MediumLE
#SPECTRUM    :
24,
285,
19261,
6588,
47914,
3814,
3521,
4101,
4564,
5099,
6763,
13795,
41902,
20523,
4331,
3417,
3495,
3118,
2995,
2935,
2865,
2694,
2454,
2539,
2279,
2920,
45625,
15714,
3800,
8208,
1813,
1538,
3223,
1585,
1489,
1794,
1396,
1309,
5705,
13941,
1192,
1110,
2418,
1879,
982,
1064,
1503,
795,
813,
840,
872,
765,
733,
691,
678,
631,
581,
557,
546,
492,
497,
476,
460,
443,
456,
423,
384,
399,
340,
349,
325,
299,
280,
276,
251,
237,
223,
227,
212,
206,
201,
166,
151,
133,
161,
153,
108,
134,
104,
105,
104,
95,
76,
81,
48,
60,
45,
38,
31,
41,
35,
20,
26,
17,
14,
10,
3,
1,
0,
0,
1,
0,
2,
0,
0,
0,
0,
0,
0,
0,
0,
0,
0,
3,
1,
0,
0,
1,
0,
0,
0,
0,
0,
0,
0,
0,
0,
0,
0,
0,
0,
0,
0,
0,
0,
0,
0,
0,
0,
0,
0,
0,
0,
0,
0,
0,
0,
0,
0,
0,
0,
0,
0,
0,
0,
0,
0,
0,
0,
0,
0,
0,
0,
0,
0,
0,
0,
0,
0,
0,
0,
0,
0,
0,
0,
0,
0,
0,
0,
0,
0,
0,
0,
0,
0,
0,
0,
0,
0,
0,
0,
0,
0,
0,
0,
0,
0,
0,
0,
0,
0,
0,
0,
0,
0,
0,
0,
0,
0,
0,
0,
0,
0,
0,
0,
0,
0,
0,
0,
0,
0,
0,
0,
0,
0,
0,
0,
0,
0,
0,
0,
0,
0,
0,
0,
0,
0,
0,
0,
0,
0,
0,
0,
0,
0,
0,
0,
0,
0,
0,
0,
0,
0,
0,
0,
0,
0,
0,
0,
0,
0,
0,
0,
0,
0,
0,
0,
0,
0,
0,
0,
0,
0,
0,
0,
0,
0,
0,
0,
0,
0,
0,
0,
0,
#ENDOFDATA   :

File: MMM2 Uvarovite[6][4].msa
#FORMAT      : EMSA/MAS Spectral Data File
#VERSION     : 1.0
#TITLE       : MMM2 Uvarovite[6][all]
#DATE        : 28-SEP-2025
#TIME        : 22:15
#OWNER       : Unknown
#NPOINTS     : 4096
#NCOLUMNS    : 1
#XUNITS      : eV
#YUNITS      : counts
#DATATYPE    : Y
#XPERCHAN    : 9.99778
#OFFSET      : 1.69135
#BEAMKV      : 15
#SIGNALTYPE  : EDS
#ELEVANGLE   : 35
#AZIMANGLE   : 0
#LIVETIME    : 240.15
#REALTIME    : 254.311
#PROBECUR    : 1.21223
#TAUWIND     : 0
#TDEADLYR    : 0
#TACTLYR     : 0.045
#TALWIND     : 0.025
#CHOFFSET    : 0.0
#XLABEL      : Energy (eV)
#YLABEL      : Counts
#XPOSITION   : -9.33722
#YPOSITION   : -0.10485
#ZPOSITION   : 34.11879
#EDSDET      : SD
##SPECIMEN   : MMM2 Uvarovite[6][all]
##DET_HASH   : 12273538-fd48-a23f-0a19-f1e6fa85caef
##CALIB_HASH : 6abaa72c-aa41-8738-0be9-f592914732f3
##WORKING    : 15.0 mm
##DET_NAME   : EDAX All
##DET_MODE   : MediumLE
#SPECTRUM    :
25,
271,
19267,
6675,
47608,
3795,
3493,
3922,
4521,
5125,
6782,
13626,
42258,
20396,
4339,
3392,
3527,
3074,
3030,
2852,
2757,
2734,
2493,
2473,
2283,
2898,
45736,
15710,
3651,
8094,
1728,
1605,
3064,
1661,
1457,
1896,
1452,
1419,
5632,
13842,
1256,
1092,
2383,
1908,
941,
1088,
1504,
881,
797,
800,
818,
751,
681,
742,
662,
631,
591,
559,
569,
547,
483,
514,
423,
437,
426,
412,
394,
390,
335,
325,
333,
302,
287,
295,
276,
235,
248,
206,
210,
183,
183,
190,
150,
188,
151,
142,
132,
132,
106,
99,
86,
76,
99,
67,
63,
61,
50,
56,
36,
34,
37,
25,
22,
17,
8,
19,
5,
2,
0,
0,
0,
0,
1,
0,
1,
1,
0,
0,
0,
0,
0,
0,
1,
0,
0,
0,
0,
0,
1,
1,
0,
0,
0,
0,
0,
0,
0,
0,
0,
0,
0,
0,
0,
0,
0,
0,
0,
0,
0,
0,
0,
0,
0,
0,
0,
0,
0,
0,
0,
0,
0,
0,
0,
0,
0,
0,
0,
0,
0,
0,
0,
0,
0,
0,
0,
0,
0,
0,
0,
0,
0,
0,
0,
0,
0,
0,
0,
0,
0,
0,
0,
0,
0,
0,
0,
0,
0,
0,
0,
0,
0,
0,
0,
0,
0,
0,
0,
0,
0,
0,
0,
0,
0,
0,
0,
0,
0,
0,
0,
0,
0,
0,
0,
0,
0,
0,
0,
0,
0,
0,
0,
0,
0,
0,
0,
0,
0,
0,
0,
0,
0,
0,
0,
0,
0,
0,
0,
0,
0,
0,
0,
0,
0,
0,
0,
0,
0,
0,
0,
0,
0,
0,
0,
0,
0,
0,
0,
0,
0,
0,
0,
0,
0,
0,
0,
0,
0,
0,
0,
0,
0,
0,
0,
0,
0,
0,
0,
0,
0,
0,
0,
0,
0,
0,
#ENDOFDATA   :

File: MMM2 Uvarovite[7][4].msa
#FORMAT      : EMSA/MAS Spectral Data File
#VERSION     : 1.0
#TITLE       : MMM2 Uvarovite[7][all]
#DATE        : 28-SEP-2025
#TIME        : 22:17
#OWNER       : Unknown
#NPOINTS     : 4096
#NCOLUMNS    : 1
#XUNITS      : eV
#YUNITS      : counts
#DATATYPE    : Y
#XPERCHAN    : 9.99778
#OFFSET      : 1.69135
#BEAMKV      : 15
#SIGNALTYPE  : EDS
#ELEVANGLE   : 35
#AZIMANGLE   : 0
#LIVETIME    : 240.152
#REALTIME    : 254.317
#PROBECUR    : 1.21223
#TAUWIND     : 0
#TDEADLYR    : 0
#TACTLYR     : 0.045
#TALWIND     : 0.025
#CHOFFSET    : 0.0
#XLABEL      : Energy (eV)
#YLABEL      : Counts
#XPOSITION   : -9.31593
#YPOSITION   : -0.11585
#ZPOSITION   : 34.11879
#EDSDET      : SD
##SPECIMEN   : MMM2 Uvarovite[7][all]
##DET_HASH   : 12273538-fd48-a23f-0a19-f1e6fa85caef
##CALIB_HASH : 6abaa72c-aa41-8738-0be9-f592914732f3
##WORKING    : 15.0 mm
##DET_NAME   : EDAX All
##DET_MODE   : MediumLE
#SPECTRUM    :
31,
294,
19280,
6455,
48033,
3876,
3522,
3956,
4572,
5204,
6856,
13710,
42217,
20768,
4336,
3336,
3616,
3213,
3042,
2871,
2821,
2657,
2579,
2484,
2259,
2757,
45114,
15712,
3664,
8219,
1688,
1513,
2951,
1644,
1437,
1739,
1403,
1310,
5647,
13261,
1207,
1127,
2393,
1954,
893,
1106,
1599,
849,
804,
806,
809,
746,
691,
690,
632,
616,
565,
539,
512,
537,
467,
470,
424,
439,
425,
426,
372,
367,
335,
330,
320,
288,
294,
280,
268,
257,
248,
240,
243,
217,
209,
186,
166,
156,
149,
132,
100,
113,
99,
120,
94,
81,
70,
64,
67,
63,
52,
34,
44,
34,
27,
15,
21,
13,
7,
7,
7,
1,
1,
0,
0,
1,
0,
0,
0,
0,
0,
0,
1,
1,
0,
1,
0,
1,
0,
1,
0,
0,
0,
0,
0,
0,
0,
0,
0,
0,
0,
0,
0,
0,
0,
0,
0,
0,
1,
0,
0,
0,
0,
0,
0,
0,
0,
0,
0,
0,
0,
0,
0,
0,
0,
0,
0,
0,
0,
0,
0,
0,
0,
0,
0,
0,
0,
0,
0,
0,
0,
0,
0,
0,
0,
0,
0,
0,
0,
0,
0,
0,
0,
0,
0,
0,
0,
0,
0,
0,
0,
0,
0,
0,
0,
0,
0,
0,
0,
0,
0,
0,
0,
0,
0,
0,
0,
0,
0,
0,
0,
0,
0,
0,
0,
0,
0,
0,
0,
0,
0,
0,
0,
0,
0,
0,
0,
0,
0,
0,
0,
0,
0,
0,
0,
0,
0,
0,
0,
0,
0,
0,
0,
0,
0,
0,
0,
0,
0,
0,
0,
0,
0,
0,
0,
0,
0,
0,
0,
0,
0,
0,
0,
0,
0,
0,
0,
0,
0,
0,
0,
0,
0,
0,
0,
0,
0,
0,
0,
0,
0,
0,
0,
0,
0,
0,
0,
0,
#ENDOFDATA   :

File: MMM2 Willemite[0][4].msa
#FORMAT      : EMSA/MAS Spectral Data File
#VERSION     : 1.0
#TITLE       : MMM2 Willemite[0][all]
#DATE        : 28-SEP-2025
#TIME        : 23:42
#OWNER       : Unknown
#NPOINTS     : 4096
#NCOLUMNS    : 1
#XUNITS      : eV
#YUNITS      : counts
#DATATYPE    : Y
#XPERCHAN    : 9.99778
#OFFSET      : 1.69135
#BEAMKV      : 15
#SIGNALTYPE  : EDS
#ELEVANGLE   : 35
#AZIMANGLE   : 0
#LIVETIME    : 240.274
#REALTIME    : 257.962
#PROBECUR    : 1.21079
#TAUWIND     : 0
#TDEADLYR    : 0
#TACTLYR     : 0.045
#TALWIND     : 0.025
#CHOFFSET    : 0.0
#XLABEL      : Energy (eV)
#YLABEL      : Counts
#XPOSITION   : -11.59726
#YPOSITION   : 2.23171
#ZPOSITION   : 34.11879
#EDSDET      : SD
##SPECIMEN   : MMM2 Willemite[0][all]
##DET_HASH   : 12273538-fd48-a23f-0a19-f1e6fa85caef
##CALIB_HASH : 6abaa72c-aa41-8738-0be9-f592914732f3
##WORKING    : 15.0 mm
##DET_NAME   : EDAX All
##DET_MODE   : MediumLE
#SPECTRUM    :
20,
353,
15141,
9323,
59086,
6608,
14896,
163635,
7755,
5037,
4401,
5519,
26786,
14532,
3928,
3988,
4177,
3862,
3818,
3658,
3750,
3541,
3267,
3214,
3087,
2956,
2801,
2725,
2647,
2512,
2512,
2323,
2317,
2105,
1979,
2026,
1877,
1890,
1749,
1693,
1624,
1702,
7111,
1996,
1430,
1390,
1933,
1486,
1185,
1280,
1147,
1081,
1106,
1037,
974,
971,
880,
852,
837,
786,
891,
8135,
13308,
921,
626,
699,
706,
672,
2399,
1408,
470,
449,
465,
384,
417,
388,
354,
371,
319,
290,
271,
282,
243,
268,
258,
216,
196,
204,
181,
159,
150,
151,
129,
118,
103,
86,
90,
71,
67,
76,
62,
40,
36,
33,
31,
9,
9,
5,
2,
3,
0,
0,
1,
0,
0,
0,
0,
2,
2,
0,
1,
1,
2,
2,
3,
0,
0,
0,
0,
0,
0,
2,
0,
1,
0,
0,
0,
0,
0,
0,
0,
0,
0,
0,
1,
0,
0,
0,
0,
1,
0,
0,
1,
0,
0,
0,
0,
0,
0,
0,
0,
0,
0,
0,
0,
0,
0,
0,
0,
0,
0,
1,
0,
0,
1,
0,
0,
0,
0,
0,
0,
0,
0,
0,
0,
0,
0,
0,
0,
0,
0,
0,
0,
0,
0,
0,
0,
0,
0,
0,
0,
0,
0,
0,
0,
0,
0,
0,
0,
0,
0,
0,
0,
0,
0,
0,
0,
0,
0,
0,
0,
0,
0,
0,
0,
0,
0,
0,
0,
0,
0,
0,
0,
0,
0,
0,
0,
0,
0,
0,
0,
0,
0,
0,
0,
0,
0,
0,
0,
0,
0,
0,
0,
0,
0,
0,
0,
0,
0,
0,
0,
0,
0,
0,
0,
0,
0,
0,
0,
0,
0,
0,
0,
0,
0,
0,
0,
0,
0,
0,
0,
0,
0,
0,
0,
0,
0,
0,
0,
0,
0,
0,
0,
0,
#ENDOFDATA   :

File: MMM2 Willemite[1][4].msa
#FORMAT      : EMSA/MAS Spectral Data File
#VERSION     : 1.0
#TITLE       : MMM2 Willemite[1][all]
#DATE        : 28-SEP-2025
#TIME        : 23:43
#OWNER       : Unknown
#NPOINTS     : 4096
#NCOLUMNS    : 1
#XUNITS      : eV
#YUNITS      : counts
#DATATYPE    : Y
#XPERCHAN    : 9.99778
#OFFSET      : 1.69135
#BEAMKV      : 15
#SIGNALTYPE  : EDS
#ELEVANGLE   : 35
#AZIMANGLE   : 0
#LIVETIME    : 240.269
#REALTIME    : 257.9
#PROBECUR    : 1.21079
#TAUWIND     : 0
#TDEADLYR    : 0
#TACTLYR     : 0.045
#TALWIND     : 0.025
#CHOFFSET    : 0.0
#XLABEL      : Energy (eV)
#YLABEL      : Counts
#XPOSITION   : -11.6
#YPOSITION   : 2.17759
#ZPOSITION   : 34.11879
#EDSDET      : SD
##SPECIMEN   : MMM2 Willemite[1][all]
##DET_HASH   : 12273538-fd48-a23f-0a19-f1e6fa85caef
##CALIB_HASH : 6abaa72c-aa41-8738-0be9-f592914732f3
##WORKING    : 15.0 mm
##DET_NAME   : EDAX All
##DET_MODE   : MediumLE
#SPECTRUM    :
33,
348,
15239,
9320,
59037,
6571,
14450,
162514,
7855,
5022,
4256,
5504,
27264,
14555,
3966,
4081,
4004,
3808,
3744,
3708,
3698,
3404,
3276,
3179,
3012,
3048,
2852,
2655,
2599,
2448,
2442,
2326,
2245,
2169,
2122,
2030,
1928,
1880,
1802,
1736,
1625,
1727,
7522,
2018,
1400,
1432,
1952,
1471,
1212,
1218,
1161,
1097,
1065,
1032,
1002,
884,
896,
881,
825,
840,
894,
8144,
13281,
915,
659,
656,
631,
729,
2446,
1464,
483,
452,
409,
425,
432,
371,
398,
378,
360,
278,
321,
289,
278,
249,
235,
225,
188,
178,
141,
174,
134,
125,
133,
116,
116,
93,
94,
76,
59,
77,
47,
43,
30,
23,
19,
11,
11,
3,
0,
3,
0,
0,
2,
2,
1,
1,
1,
0,
1,
0,
1,
0,
0,
3,
1,
0,
1,
0,
1,
0,
0,
0,
0,
2,
0,
0,
0,
0,
0,
1,
1,
1,
1,
0,
0,
0,
0,
0,
0,
0,
0,
0,
0,
0,
0,
0,
0,
0,
0,
0,
0,
0,
0,
0,
0,
0,
0,
0,
0,
0,
0,
0,
0,
0,
0,
0,
0,
0,
0,
0,
0,
0,
0,
0,
0,
0,
0,
0,
0,
0,
0,
0,
0,
0,
0,
0,
0,
0,
0,
0,
0,
0,
0,
0,
0,
0,
0,
0,
0,
0,
0,
0,
0,
0,
0,
0,
0,
0,
0,
0,
0,
0,
0,
0,
0,
0,
0,
0,
0,
0,
0,
0,
0,
0,
0,
0,
0,
0,
0,
0,
0,
0,
0,
0,
0,
0,
0,
0,
0,
0,
0,
0,
0,
0,
0,
0,
0,
0,
0,
0,
0,
0,
0,
0,
0,
0,
0,
0,
0,
0,
0,
0,
0,
0,
0,
0,
0,
0,
0,
0,
0,
0,
0,
0,
0,
0,
0,
0,
0,
0,
0,
0,
0,
0,
#ENDOFDATA   :

File: MMM2 Willemite[2][4].msa
#FORMAT      : EMSA/MAS Spectral Data File
#VERSION     : 1.0
#TITLE       : MMM2 Willemite[2][all]
#DATE        : 28-SEP-2025
#TIME        : 23:45
#OWNER       : Unknown
#NPOINTS     : 4096
#NCOLUMNS    : 1
#XUNITS      : eV
#YUNITS      : counts
#DATATYPE    : Y
#XPERCHAN    : 9.99778
#OFFSET      : 1.69135
#BEAMKV      : 15
#SIGNALTYPE  : EDS
#ELEVANGLE   : 35
#AZIMANGLE   : 0
#LIVETIME    : 240.065
#REALTIME    : 258.088
#PROBECUR    : 1.21079
#TAUWIND     : 0
#TDEADLYR    : 0
#TACTLYR     : 0.045
#TALWIND     : 0.025
#CHOFFSET    : 0.0
#XLABEL      : Energy (eV)
#YLABEL      : Counts
#XPOSITION   : -11.52868
#YPOSITION   : 2.26098
#ZPOSITION   : 34.11879
#EDSDET      : SD
##SPECIMEN   : MMM2 Willemite[2][all]
##DET_HASH   : 12273538-fd48-a23f-0a19-f1e6fa85caef
##CALIB_HASH : 6abaa72c-aa41-8738-0be9-f592914732f3
##WORKING    : 15.0 mm
##DET_NAME   : EDAX All
##DET_MODE   : MediumLE
#SPECTRUM    :
19,
327,
16564,
9676,
61387,
6670,
15108,
169025,
8161,
6235,
4601,
5827,
27650,
15010,
4149,
4045,
4134,
3767,
3800,
3857,
3750,
3328,
3358,
3136,
3011,
2922,
2748,
2778,
2669,
2458,
2433,
2298,
2141,
2056,
2076,
1944,
1904,
1798,
1771,
1726,
1662,
1740,
6425,
1897,
1406,
1431,
1823,
1471,
1229,
1250,
1135,
1108,
1037,
976,
964,
873,
891,
901,
834,
889,
913,
8277,
13213,
973,
686,
684,
625,
669,
2524,
1476,
511,
461,
450,
413,
459,
370,
352,
321,
345,
336,
281,
308,
280,
255,
217,
238,
185,
184,
187,
164,
151,
134,
114,
110,
106,
85,
93,
79,
78,
62,
45,
47,
32,
24,
17,
14,
6,
3,
1,
1,
0,
1,
0,
0,
1,
1,
2,
1,
0,
1,
0,
2,
1,
0,
2,
3,
1,
1,
1,
0,
3,
1,
0,
0,
0,
0,
0,
1,
0,
2,
1,
0,
1,
0,
0,
1,
2,
0,
0,
2,
0,
0,
0,
0,
0,
0,
0,
0,
0,
0,
0,
0,
0,
0,
0,
0,
0,
0,
0,
0,
0,
0,
0,
0,
0,
0,
0,
0,
0,
0,
0,
0,
0,
0,
0,
0,
0,
0,
0,
0,
0,
0,
0,
0,
0,
0,
0,
0,
0,
0,
0,
0,
0,
0,
0,
0,
0,
0,
0,
0,
0,
0,
0,
0,
0,
0,
0,
0,
0,
0,
0,
0,
0,
0,
0,
0,
0,
0,
0,
0,
0,
0,
0,
0,
0,
0,
0,
0,
0,
0,
0,
0,
0,
0,
0,
0,
0,
0,
0,
0,
0,
0,
0,
0,
0,
0,
0,
0,
0,
0,
0,
0,
0,
0,
0,
0,
0,
0,
0,
0,
0,
0,
0,
0,
0,
0,
0,
0,
0,
0,
0,
0,
0,
0,
0,
0,
0,
0,
0,
0,
0,
0,
0,
0,
#ENDOFDATA   :

File: MMM2 Willemite[3][4].msa
#FORMAT      : EMSA/MAS Spectral Data File
#VERSION     : 1.0
#TITLE       : MMM2 Willemite[3][all]
#DATE        : 28-SEP-2025
#TIME        : 23:46
#OWNER       : Unknown
#NPOINTS     : 4096
#NCOLUMNS    : 1
#XUNITS      : eV
#YUNITS      : counts
#DATATYPE    : Y
#XPERCHAN    : 9.99778
#OFFSET      : 1.69135
#BEAMKV      : 15
#SIGNALTYPE  : EDS
#ELEVANGLE   : 35
#AZIMANGLE   : 0
#LIVETIME    : 240.231
#REALTIME    : 257.889
#PROBECUR    : 1.21079
#TAUWIND     : 0
#TDEADLYR    : 0
#TACTLYR     : 0.045
#TALWIND     : 0.025
#CHOFFSET    : 0.0
#XLABEL      : Energy (eV)
#YLABEL      : Counts
#XPOSITION   : -11.64075
#YPOSITION   : 2.24336
#ZPOSITION   : 34.11879
#EDSDET      : SD
##SPECIMEN   : MMM2 Willemite[3][all]
##DET_HASH   : 12273538-fd48-a23f-0a19-f1e6fa85caef
##CALIB_HASH : 6abaa72c-aa41-8738-0be9-f592914732f3
##WORKING    : 15.0 mm
##DET_NAME   : EDAX All
##DET_MODE   : MediumLE
#SPECTRUM    :
16,
309,
15109,
9039,
59149,
6357,
14690,
163206,
7948,
4975,
4366,
5527,
27199,
14518,
4185,
4060,
4132,
3877,
3853,
3660,
3703,
3424,
3324,
3164,
3100,
2985,
2830,
2730,
2727,
2569,
2464,
2333,
2230,
2086,
2042,
2032,
1888,
1836,
1772,
1698,
1682,
1728,
7441,
1975,
1505,
1430,
1959,
1475,
1176,
1229,
1167,
1135,
1027,
999,
942,
922,
917,
854,
823,
886,
845,
8297,
13317,
992,
678,
655,
612,
671,
2377,
1428,
482,
453,
472,
430,
441,
374,
355,
344,
328,
305,
319,
257,
261,
255,
210,
203,
199,
197,
193,
192,
154,
138,
130,
104,
95,
104,
81,
74,
71,
60,
43,
42,
30,
26,
24,
12,
8,
2,
1,
0,
1,
0,
0,
0,
1,
1,
0,
0,
1,
0,
1,
1,
1,
0,
1,
1,
0,
1,
0,
0,
1,
0,
0,
0,
0,
0,
1,
0,
0,
0,
0,
0,
0,
0,
0,
0,
0,
0,
0,
0,
0,
0,
0,
0,
0,
0,
0,
0,
0,
0,
0,
0,
0,
0,
0,
0,
0,
1,
0,
0,
0,
0,
0,
0,
0,
0,
0,
0,
0,
0,
0,
0,
0,
0,
0,
0,
0,
0,
0,
0,
0,
0,
0,
0,
0,
0,
0,
0,
0,
0,
0,
0,
0,
0,
0,
0,
0,
0,
0,
0,
0,
0,
0,
0,
0,
0,
0,
0,
0,
0,
0,
0,
0,
0,
0,
0,
0,
0,
0,
0,
0,
0,
0,
0,
0,
0,
0,
0,
0,
0,
0,
0,
0,
0,
0,
0,
0,
0,
0,
0,
0,
0,
0,
0,
0,
0,
0,
0,
0,
0,
0,
0,
0,
0,
0,
0,
0,
0,
0,
0,
0,
0,
0,
0,
0,
0,
0,
0,
0,
0,
0,
0,
0,
0,
0,
0,
0,
0,
0,
0,
0,
0,
0,
0,
#ENDOFDATA   :