Folder: spex_quant/N132962/Quantification/15 keV/Mengason MM2 (part 8)

File: MMM2 Scheelite[0][4].msa
#FORMAT      : EMSA/MAS Spectral Data File
#VERSION     : 1.0
#TITLE       : MMM2 Scheelite[0][all]
#DATE        : 29-SEP-2025
#TIME        : 00:23
#OWNER       : Unknown
#NPOINTS     : 4096
#NCOLUMNS    : 1
#XUNITS      : eV
#YUNITS      : counts
#DATATYPE    : Y
#XPERCHAN    : 9.99778
#OFFSET      : 1.69135
#BEAMKV      : 15
#SIGNALTYPE  : EDS
#ELEVANGLE   : 35
#AZIMANGLE   : 0
#LIVETIME    : 240.258
#REALTIME    : 260.571
#PROBECUR    : 1.21186
#TAUWIND     : 0
#TDEADLYR    : 0
#TACTLYR     : 0.045
#TALWIND     : 0.025
#CHOFFSET    : 0.0
#XLABEL      : Energy (eV)
#YLABEL      : Counts
#XPOSITION   : -17.52537
#YPOSITION   : 4.48409
#ZPOSITION   : 34.11879
#EDSDET      : SD
##SPECIMEN   : MMM2 Scheelite[0][all]
##DET_HASH   : 12273538-fd48-a23f-0a19-f1e6fa85caef
##CALIB_HASH : 6abaa72c-aa41-8738-0be9-f592914732f3
##WORKING    : 15.0 mm
##DET_NAME   : EDAX All
##DET_MODE   : MediumLE
#SPECTRUM    :
24,
703,
23601,
6724,
28123,
6718,
7842,
8407,
9086,
9995,
22581,
10589,
21567,
174244,
8094,
6518,
5965,
6040,
5109,
5086,
5129,
4850,
4771,
4799,
4606,
5081,
30302,
12676,
5345,
7938,
3941,
3689,
3811,
3664,
3533,
3454,
3413,
3304,
3226,
3280,
2962,
3018,
2900,
2886,
2663,
2750,
2664,
2467,
2424,
2223,
2275,
2231,
2261,
2475,
2033,
1865,
1872,
1814,
1783,
3306,
11247,
2385,
1588,
1490,
1398,
1328,
1270,
1243,
1822,
3707,
1914,
2741,
1436,
1039,
947,
927,
864,
829,
734,
758,
997,
973,
743,
691,
604,
502,
515,
484,
427,
427,
373,
326,
345,
316,
274,
271,
223,
173,
187,
142,
159,
117,
98,
87,
53,
40,
16,
6,
3,
2,
3,
5,
2,
3,
3,
3,
7,
4,
2,
2,
2,
1,
1,
2,
3,
6,
5,
1,
1,
0,
1,
2,
1,
1,
0,
0,
1,
2,
0,
2,
0,
1,
0,
0,
0,
0,
2,
1,
1,
2,
0,
1,
0,
1,
0,
0,
1,
1,
0,
0,
0,
0,
0,
1,
0,
0,
0,
0,
0,
0,
0,
0,
0,
0,
0,
0,
0,
0,
0,
0,
1,
0,
0,
0,
0,
0,
0,
0,
0,
0,
0,
0,
0,
0,
0,
0,
0,
0,
0,
0,
0,
0,
0,
0,
0,
0,
0,
0,
0,
0,
0,
0,
0,
0,
0,
0,
0,
0,
0,
0,
0,
0,
0,
0,
0,
0,
0,
0,
0,
0,
0,
0,
0,
0,
0,
0,
0,
0,
0,
0,
0,
0,
0,
0,
0,
0,
0,
0,
0,
0,
0,
0,
0,
0,
0,
0,
0,
0,
0,
0,
0,
0,
0,
0,
0,
0,
0,
0,
0,
0,
0,
0,
0,
0,
0,
0,
0,
0,
0,
0,
0,
0,
0,
0,
0,
0,
0,
0,
0,
0,
0,
0,
0,
0,
#ENDOFDATA   :

File: MMM2 Scheelite[1][4].msa
#FORMAT      : EMSA/MAS Spectral Data File
#VERSION     : 1.0
#TITLE       : MMM2 Scheelite[1][all]
#DATE        : 29-SEP-2025
#TIME        : 00:25
#OWNER       : Unknown
#NPOINTS     : 4096
#NCOLUMNS    : 1
#XUNITS      : eV
#YUNITS      : counts
#DATATYPE    : Y
#XPERCHAN    : 9.99778
#OFFSET      : 1.69135
#BEAMKV      : 15
#SIGNALTYPE  : EDS
#ELEVANGLE   : 35
#AZIMANGLE   : 0
#LIVETIME    : 240.243
#REALTIME    : 260.582
#PROBECUR    : 1.21186
#TAUWIND     : 0
#TDEADLYR    : 0
#TACTLYR     : 0.045
#TALWIND     : 0.025
#CHOFFSET    : 0.0
#XLABEL      : Energy (eV)
#YLABEL      : Counts
#XPOSITION   : -17.55385
#YPOSITION   : 4.53779
#ZPOSITION   : 34.11879
#EDSDET      : SD
##SPECIMEN   : MMM2 Scheelite[1][all]
##DET_HASH   : 12273538-fd48-a23f-0a19-f1e6fa85caef
##CALIB_HASH : 6abaa72c-aa41-8738-0be9-f592914732f3
##WORKING    : 15.0 mm
##DET_NAME   : EDAX All
##DET_MODE   : MediumLE
#SPECTRUM    :
24,
734,
23662,
6811,
28458,
6666,
7852,
8412,
9282,
9928,
22428,
10336,
21252,
173279,
7725,
6829,
5974,
6008,
5102,
4972,
5147,
4832,
4831,
4827,
4731,
5057,
30210,
12750,
5528,
7936,
4056,
4029,
3860,
3688,
3617,
3543,
3475,
3293,
3257,
3288,
3092,
2908,
2914,
2766,
2656,
2660,
2717,
2550,
2403,
2260,
2276,
2184,
2354,
2476,
1998,
1886,
1817,
1815,
1765,
3400,
11258,
2312,
1574,
1514,
1365,
1329,
1262,
1334,
1754,
3729,
1987,
2847,
1350,
1039,
947,
865,
892,
826,
782,
769,
921,
953,
637,
711,
598,
522,
527,
472,
448,
381,
411,
370,
336,
291,
278,
252,
240,
219,
162,
160,
156,
104,
87,
87,
60,
58,
29,
12,
5,
4,
3,
2,
1,
2,
1,
2,
0,
1,
3,
2,
3,
2,
3,
0,
1,
0,
0,
1,
2,
1,
2,
0,
2,
0,
0,
0,
0,
0,
0,
1,
0,
2,
1,
0,
0,
0,
0,
0,
1,
0,
0,
0,
0,
1,
0,
0,
0,
0,
0,
0,
0,
0,
0,
0,
0,
0,
0,
0,
0,
0,
0,
0,
0,
0,
0,
0,
0,
0,
0,
0,
0,
0,
0,
0,
0,
0,
0,
0,
0,
0,
0,
0,
0,
0,
0,
0,
0,
0,
0,
0,
0,
0,
0,
0,
0,
0,
0,
0,
0,
0,
0,
0,
0,
0,
0,
0,
0,
0,
0,
0,
0,
0,
0,
0,
0,
0,
0,
0,
0,
0,
0,
0,
0,
0,
0,
0,
0,
0,
0,
0,
0,
0,
0,
0,
0,
0,
0,
0,
0,
0,
0,
0,
0,
0,
0,
0,
0,
0,
0,
0,
0,
0,
0,
0,
0,
0,
0,
0,
0,
0,
0,
0,
0,
0,
0,
0,
0,
0,
0,
0,
0,
0,
0,
0,
0,
0,
0,
0,
0,
0,
0,
0,
0,
0,
#ENDOFDATA   :

File: MMM2 Scheelite[2][4].msa
#FORMAT      : EMSA/MAS Spectral Data File
#VERSION     : 1.0
#TITLE       : MMM2 Scheelite[2][all]
#DATE        : 29-SEP-2025
#TIME        : 00:26
#OWNER       : Unknown
#NPOINTS     : 4096
#NCOLUMNS    : 1
#XUNITS      : eV
#YUNITS      : counts
#DATATYPE    : Y
#XPERCHAN    : 9.99778
#OFFSET      : 1.69135
#BEAMKV      : 15
#SIGNALTYPE  : EDS
#ELEVANGLE   : 35
#AZIMANGLE   : 0
#LIVETIME    : 240.4
#REALTIME    : 260.777
#PROBECUR    : 1.21186
#TAUWIND     : 0
#TDEADLYR    : 0
#TACTLYR     : 0.045
#TALWIND     : 0.025
#CHOFFSET    : 0.0
#XLABEL      : Energy (eV)
#YLABEL      : Counts
#XPOSITION   : -17.54249
#YPOSITION   : 4.48534
#ZPOSITION   : 34.11879
#EDSDET      : SD
##SPECIMEN   : MMM2 Scheelite[2][all]
##DET_HASH   : 12273538-fd48-a23f-0a19-f1e6fa85caef
##CALIB_HASH : 6abaa72c-aa41-8738-0be9-f592914732f3
##WORKING    : 15.0 mm
##DET_NAME   : EDAX All
##DET_MODE   : MediumLE
#SPECTRUM    :
26,
703,
23700,
6691,
28712,
6657,
7937,
8417,
9420,
9972,
22211,
10489,
21448,
173902,
7853,
6704,
6004,
5925,
5198,
4960,
5322,
4936,
4862,
4914,
4739,
4978,
30231,
12512,
5688,
7901,
3994,
3804,
3834,
3748,
3532,
3540,
3423,
3375,
3158,
3258,
2986,
2951,
2962,
2704,
2651,
2636,
2645,
2432,
2338,
2282,
2260,
2151,
2216,
2495,
2018,
1896,
1895,
1824,
1749,
3384,
11333,
2284,
1557,
1503,
1436,
1392,
1301,
1322,
1802,
3705,
1962,
2749,
1372,
994,
905,
910,
797,
854,
769,
781,
955,
879,
709,
668,
626,
556,
526,
468,
456,
390,
348,
335,
329,
327,
289,
245,
214,
203,
186,
165,
153,
126,
91,
82,
63,
42,
18,
6,
2,
3,
2,
5,
0,
3,
2,
3,
6,
0,
3,
0,
0,
2,
8,
1,
1,
2,
0,
2,
0,
0,
1,
1,
0,
0,
0,
0,
0,
1,
2,
1,
0,
1,
0,
1,
1,
1,
0,
0,
0,
1,
1,
0,
0,
0,
0,
0,
0,
1,
0,
0,
0,
0,
0,
0,
1,
0,
0,
0,
0,
0,
0,
0,
0,
0,
0,
0,
0,
1,
0,
0,
0,
0,
0,
0,
0,
0,
0,
0,
0,
0,
0,
0,
0,
0,
0,
0,
0,
0,
0,
0,
0,
0,
0,
0,
0,
0,
0,
0,
0,
0,
0,
0,
0,
0,
0,
0,
0,
0,
0,
0,
0,
0,
0,
0,
0,
0,
0,
0,
0,
0,
0,
0,
0,
0,
0,
0,
0,
0,
0,
0,
0,
0,
0,
0,
0,
0,
0,
0,
0,
0,
0,
0,
0,
0,
0,
0,
0,
0,
0,
0,
0,
0,
0,
0,
0,
0,
0,
0,
0,
0,
0,
0,
0,
0,
0,
0,
0,
0,
0,
0,
0,
0,
0,
0,
0,
0,
0,
0,
0,
0,
0,
0,
0,
0,
#ENDOFDATA   :

File: MMM2 Scheelite[3][4].msa
#FORMAT      : EMSA/MAS Spectral Data File
#VERSION     : 1.0
#TITLE       : MMM2 Scheelite[3][all]
#DATE        : 29-SEP-2025
#TIME        : 00:27
#OWNER       : Unknown
#NPOINTS     : 4096
#NCOLUMNS    : 1
#XUNITS      : eV
#YUNITS      : counts
#DATATYPE    : Y
#XPERCHAN    : 9.99778
#OFFSET      : 1.69135
#BEAMKV      : 15
#SIGNALTYPE  : EDS
#ELEVANGLE   : 35
#AZIMANGLE   : 0
#LIVETIME    : 240.298
#REALTIME    : 260.653
#PROBECUR    : 1.21186
#TAUWIND     : 0
#TDEADLYR    : 0
#TACTLYR     : 0.045
#TALWIND     : 0.025
#CHOFFSET    : 0.0
#XLABEL      : Energy (eV)
#YLABEL      : Counts
#XPOSITION   : -17.52098
#YPOSITION   : 4.50566
#ZPOSITION   : 34.11879
#EDSDET      : SD
##SPECIMEN   : MMM2 Scheelite[3][all]
##DET_HASH   : 12273538-fd48-a23f-0a19-f1e6fa85caef
##CALIB_HASH : 6abaa72c-aa41-8738-0be9-f592914732f3
##WORKING    : 15.0 mm
##DET_NAME   : EDAX All
##DET_MODE   : MediumLE
#SPECTRUM    :
31,
663,
24278,
6625,
28344,
6696,
7807,
8591,
9225,
10254,
22528,
10472,
21383,
172744,
7982,
6579,
6073,
5902,
5201,
5127,
5100,
4965,
5021,
4841,
4708,
5145,
30246,
12783,
5449,
8196,
4076,
3804,
3777,
3633,
3493,
3456,
3443,
3287,
3272,
3240,
3131,
3014,
2839,
2783,
2654,
2626,
2650,
2458,
2390,
2287,
2259,
2221,
2275,
2407,
2094,
1919,
1887,
1821,
1821,
3370,
11244,
2328,
1592,
1517,
1388,
1397,
1356,
1348,
1768,
3695,
1769,
2747,
1467,
993,
937,
928,
858,
859,
775,
762,
973,
908,
737,
715,
535,
539,
520,
534,
452,
419,
386,
379,
330,
298,
278,
248,
225,
215,
166,
186,
118,
137,
121,
86,
82,
43,
16,
10,
4,
3,
4,
4,
2,
7,
2,
2,
1,
2,
5,
4,
3,
5,
0,
0,
2,
1,
1,
1,
1,
1,
0,
1,
3,
0,
1,
0,
0,
0,
1,
0,
2,
1,
0,
1,
2,
1,
0,
0,
0,
2,
0,
0,
1,
0,
0,
0,
0,
1,
1,
1,
0,
0,
0,
0,
0,
1,
0,
0,
0,
0,
0,
0,
0,
0,
1,
0,
0,
0,
0,
0,
0,
0,
1,
0,
0,
0,
0,
1,
0,
0,
0,
0,
0,
0,
0,
0,
0,
0,
0,
0,
0,
0,
0,
0,
0,
0,
0,
0,
0,
0,
0,
0,
0,
0,
0,
0,
0,
0,
0,
0,
0,
0,
0,
0,
0,
0,
0,
0,
0,
0,
0,
0,
0,
0,
0,
0,
0,
0,
0,
0,
0,
0,
0,
0,
0,
0,
0,
0,
0,
0,
0,
0,
0,
0,
0,
0,
0,
0,
0,
0,
0,
0,
0,
0,
0,
0,
0,
0,
0,
0,
0,
0,
0,
0,
0,
0,
0,
0,
0,
0,
0,
0,
0,
0,
0,
0,
0,
0,
0,
0,
0,
0,
0,
0,
#ENDOFDATA   :

File: MMM2 Scheelite[4][4].msa
#FORMAT      : EMSA/MAS Spectral Data File
#VERSION     : 1.0
#TITLE       : MMM2 Scheelite[4][all]
#DATE        : 29-SEP-2025
#TIME        : 00:28
#OWNER       : Unknown
#NPOINTS     : 4096
#NCOLUMNS    : 1
#XUNITS      : eV
#YUNITS      : counts
#DATATYPE    : Y
#XPERCHAN    : 9.99778
#OFFSET      : 1.69135
#BEAMKV      : 15
#SIGNALTYPE  : EDS
#ELEVANGLE   : 35
#AZIMANGLE   : 0
#LIVETIME    : 240.243
#REALTIME    : 260.591
#PROBECUR    : 1.21186
#TAUWIND     : 0
#TDEADLYR    : 0
#TACTLYR     : 0.045
#TALWIND     : 0.025
#CHOFFSET    : 0.0
#XLABEL      : Energy (eV)
#YLABEL      : Counts
#XPOSITION   : -17.47639
#YPOSITION   : 4.44086
#ZPOSITION   : 34.11879
#EDSDET      : SD
##SPECIMEN   : MMM2 Scheelite[4][all]
##DET_HASH   : 12273538-fd48-a23f-0a19-f1e6fa85caef
##CALIB_HASH : 6abaa72c-aa41-8738-0be9-f592914732f3
##WORKING    : 15.0 mm
##DET_NAME   : EDAX All
##DET_MODE   : MediumLE
#SPECTRUM    :
35,
691,
23382,
6777,
28883,
6733,
7814,
8511,
9204,
10048,
22560,
10520,
21185,
173048,
7711,
6687,
6087,
6075,
5044,
5021,
5049,
4945,
4871,
4772,
4721,
5090,
30057,
12738,
5572,
7977,
4042,
3809,
3705,
3672,
3540,
3512,
3493,
3243,
3267,
3268,
3092,
2976,
2862,
2835,
2698,
2623,
2608,
2437,
2400,
2306,
2289,
2257,
2181,
2505,
2064,
1952,
1870,
1800,
1753,
3414,
11126,
2351,
1556,
1521,
1516,
1376,
1304,
1314,
1865,
3659,
1913,
2885,
1353,
1023,
897,
897,
862,
790,
861,
785,
956,
961,
678,
745,
590,
542,
506,
472,
433,
412,
366,
347,
331,
327,
257,
246,
216,
209,
177,
155,
133,
123,
89,
73,
45,
34,
20,
9,
5,
7,
3,
3,
8,
2,
1,
3,
4,
4,
4,
0,
1,
2,
1,
1,
0,
1,
1,
1,
0,
0,
2,
0,
0,
0,
1,
1,
1,
1,
3,
0,
2,
1,
0,
2,
0,
1,
0,
1,
2,
0,
0,
1,
1,
0,
0,
0,
1,
1,
0,
0,
0,
0,
1,
0,
0,
0,
0,
0,
0,
0,
0,
0,
0,
0,
0,
0,
0,
0,
0,
0,
0,
0,
0,
0,
0,
0,
0,
0,
0,
0,
0,
0,
0,
0,
0,
0,
0,
0,
0,
0,
0,
0,
0,
0,
0,
0,
0,
0,
0,
0,
0,
0,
0,
0,
0,
0,
0,
0,
0,
0,
0,
0,
0,
0,
0,
0,
0,
0,
0,
0,
0,
0,
0,
0,
0,
0,
0,
0,
0,
0,
0,
0,
0,
0,
0,
0,
0,
0,
0,
0,
0,
0,
0,
0,
0,
0,
0,
0,
0,
0,
0,
0,
0,
0,
0,
0,
0,
0,
0,
0,
0,
0,
0,
0,
0,
0,
0,
0,
0,
0,
0,
0,
0,
0,
0,
0,
0,
0,
0,
0,
0,
0,
0,
0,
#ENDOFDATA   :

File: MMM2 Scheelite[5][4].msa
#FORMAT      : EMSA/MAS Spectral Data File
#VERSION     : 1.0
#TITLE       : MMM2 Scheelite[5][all]
#DATE        : 29-SEP-2025
#TIME        : 00:29
#OWNER       : Unknown
#NPOINTS     : 4096
#NCOLUMNS    : 1
#XUNITS      : eV
#YUNITS      : counts
#DATATYPE    : Y
#XPERCHAN    : 9.99778
#OFFSET      : 1.69135
#BEAMKV      : 15
#SIGNALTYPE  : EDS
#ELEVANGLE   : 35
#AZIMANGLE   : 0
#LIVETIME    : 240.27
#REALTIME    : 260.5934
#PROBECUR    : 1.21186
#TAUWIND     : 0
#TDEADLYR    : 0
#TACTLYR     : 0.045
#TALWIND     : 0.025
#CHOFFSET    : 0.0
#XLABEL      : Energy (eV)
#YLABEL      : Counts
#XPOSITION   : -17.6071
#YPOSITION   : 4.45242
#ZPOSITION   : 34.11879
#EDSDET      : SD
##SPECIMEN   : MMM2 Scheelite[5][all]
##DET_HASH   : 12273538-fd48-a23f-0a19-f1e6fa85caef
##CALIB_HASH : 6abaa72c-aa41-8738-0be9-f592914732f3
##WORKING    : 15.0 mm
##DET_NAME   : EDAX All
##DET_MODE   : MediumLE
#SPECTRUM    :
21,
701,
23613,
6802,
28757,
6696,
8000,
8413,
9228,
10030,
22387,
10595,
21380,
173297,
7905,
6568,
6078,
6020,
5215,
5012,
5095,
4864,
4912,
4834,
4766,
5127,
30509,
12565,
5429,
7972,
3997,
3775,
3764,
3684,
3704,
3528,
3442,
3234,
3315,
3321,
3033,
2874,
2894,
2788,
2628,
2643,
2562,
2430,
2372,
2277,
2264,
2199,
2286,
2547,
1952,
1886,
1875,
1784,
1800,
3426,
11126,
2376,
1513,
1424,
1383,
1324,
1343,
1334,
1708,
3717,
1975,
2864,
1376,
1011,
969,
867,
881,
829,
847,
690,
902,
931,
681,
675,
629,
515,
540,
507,
422,
431,
382,
376,
305,
298,
260,
246,
217,
195,
192,
168,
132,
118,
107,
92,
57,
43,
16,
10,
3,
3,
4,
5,
1,
2,
1,
2,
2,
0,
3,
0,
2,
1,
1,
1,
1,
2,
1,
3,
1,
0,
4,
2,
0,
0,
1,
0,
0,
0,
2,
0,
1,
0,
0,
2,
0,
2,
0,
0,
0,
0,
0,
1,
0,
0,
0,
0,
0,
0,
0,
0,
0,
0,
0,
0,
0,
0,
0,
0,
0,
0,
0,
0,
0,
0,
0,
0,
0,
0,
0,
0,
0,
0,
0,
0,
0,
0,
0,
0,
0,
0,
0,
0,
0,
0,
0,
0,
0,
0,
0,
0,
0,
0,
0,
0,
0,
0,
0,
0,
0,
0,
0,
0,
0,
0,
0,
0,
0,
0,
0,
0,
0,
0,
0,
0,
0,
0,
0,
0,
0,
0,
0,
0,
0,
0,
0,
0,
0,
0,
0,
0,
0,
0,
0,
0,
0,
0,
0,
0,
0,
0,
0,
0,
0,
0,
0,
0,
0,
0,
0,
0,
0,
0,
0,
0,
0,
0,
0,
0,
0,
0,
0,
0,
0,
0,
0,
0,
0,
0,
0,
0,
0,
0,
0,
0,
0,
0,
0,
0,
0,
0,
0,
0,
0,
0,
#ENDOFDATA   :

File: MMM2 Scheelite[6][4].msa
#FORMAT      : EMSA/MAS Spectral Data File
#VERSION     : 1.0
#TITLE       : MMM2 Scheelite[6][all]
#DATE        : 29-SEP-2025
#TIME        : 00:31
#OWNER       : Unknown
#NPOINTS     : 4096
#NCOLUMNS    : 1
#XUNITS      : eV
#YUNITS      : counts
#DATATYPE    : Y
#XPERCHAN    : 9.99778
#OFFSET      : 1.69135
#BEAMKV      : 15
#SIGNALTYPE  : EDS
#ELEVANGLE   : 35
#AZIMANGLE   : 0
#LIVETIME    : 240.247
#REALTIME    : 260.586
#PROBECUR    : 1.21186
#TAUWIND     : 0
#TDEADLYR    : 0
#TACTLYR     : 0.045
#TALWIND     : 0.025
#CHOFFSET    : 0.0
#XLABEL      : Energy (eV)
#YLABEL      : Counts
#XPOSITION   : -17.52038
#YPOSITION   : 4.44043
#ZPOSITION   : 34.11879
#EDSDET      : SD
##SPECIMEN   : MMM2 Scheelite[6][all]
##DET_HASH   : 12273538-fd48-a23f-0a19-f1e6fa85caef
##CALIB_HASH : 6abaa72c-aa41-8738-0be9-f592914732f3
##WORKING    : 15.0 mm
##DET_NAME   : EDAX All
##DET_MODE   : MediumLE
#SPECTRUM    :
17,
702,
23560,
6807,
28739,
6888,
7653,
8526,
9187,
10134,
22095,
10387,
21394,
173924,
7689,
6726,
6001,
6037,
5053,
4948,
5049,
4874,
4874,
4769,
4813,
5050,
30145,
12473,
5363,
8021,
3967,
3864,
3772,
3804,
3579,
3475,
3476,
3303,
3290,
3271,
3060,
3021,
2921,
2784,
2745,
2615,
2769,
2470,
2378,
2373,
2250,
2219,
2179,
2448,
2062,
1925,
1817,
1878,
1765,
3463,
11244,
2367,
1643,
1456,
1450,
1392,
1303,
1243,
1725,
3632,
1960,
2814,
1441,
1051,
908,
840,
818,
813,
751,
741,
943,
999,
687,
686,
568,
527,
574,
468,
404,
406,
347,
383,
367,
305,
296,
263,
212,
203,
182,
164,
150,
134,
95,
70,
58,
50,
29,
12,
5,
5,
1,
2,
6,
2,
4,
1,
1,
3,
1,
1,
3,
4,
4,
0,
1,
0,
1,
2,
2,
4,
1,
2,
1,
0,
0,
0,
3,
1,
0,
2,
0,
0,
2,
0,
0,
0,
1,
1,
0,
0,
0,
0,
0,
0,
0,
0,
0,
0,
0,
0,
1,
0,
0,
0,
0,
0,
0,
0,
0,
0,
0,
0,
0,
0,
0,
0,
0,
0,
0,
0,
0,
0,
0,
0,
0,
0,
0,
0,
0,
0,
0,
0,
0,
0,
0,
0,
0,
0,
0,
0,
0,
0,
0,
0,
0,
0,
0,
0,
0,
0,
0,
0,
0,
0,
0,
0,
0,
0,
0,
0,
0,
0,
0,
0,
0,
0,
0,
0,
0,
0,
0,
0,
0,
0,
0,
0,
0,
0,
0,
0,
0,
0,
0,
0,
0,
0,
0,
0,
0,
0,
0,
0,
0,
0,
0,
0,
0,
0,
0,
0,
0,
0,
0,
0,
0,
0,
0,
0,
0,
0,
0,
0,
0,
0,
0,
0,
0,
0,
0,
0,
0,
0,
0,
0,
0,
0,
0,
0,
0,
0,
0,
0,
0,
0,
#ENDOFDATA   :

File: MMM2 Scheelite[7][4].msa
#FORMAT      : EMSA/MAS Spectral Data File
#VERSION     : 1.0
#TITLE       : MMM2 Scheelite[7][all]
#DATE        : 29-SEP-2025
#TIME        : 00:32
#OWNER       : Unknown
#NPOINTS     : 4096
#NCOLUMNS    : 1
#XUNITS      : eV
#YUNITS      : counts
#DATATYPE    : Y
#XPERCHAN    : 9.99778
#OFFSET      : 1.69135
#BEAMKV      : 15
#SIGNALTYPE  : EDS
#ELEVANGLE   : 35
#AZIMANGLE   : 0
#LIVETIME    : 240.247
#REALTIME    : 260.587
#PROBECUR    : 1.21186
#TAUWIND     : 0
#TDEADLYR    : 0
#TACTLYR     : 0.045
#TALWIND     : 0.025
#CHOFFSET    : 0.0
#XLABEL      : Energy (eV)
#YLABEL      : Counts
#XPOSITION   : -17.48746
#YPOSITION   : 4.44723
#ZPOSITION   : 34.11879
#EDSDET      : SD
##SPECIMEN   : MMM2 Scheelite[7][all]
##DET_HASH   : 12273538-fd48-a23f-0a19-f1e6fa85caef
##CALIB_HASH : 6abaa72c-aa41-8738-0be9-f592914732f3
##WORKING    : 15.0 mm
##DET_NAME   : EDAX All
##DET_MODE   : MediumLE
#SPECTRUM    :
23,
711,
23469,
6665,
28485,
6742,
7847,
8412,
9332,
9986,
22223,
10564,
21222,
174159,
7865,
6671,
6180,
6038,
5293,
4981,
5126,
4821,
4774,
4844,
4701,
4935,
30028,
12729,
5521,
7996,
3946,
3864,
3755,
3581,
3577,
3548,
3338,
3299,
3266,
3298,
3157,
2940,
2890,
2831,
2693,
2675,
2705,
2408,
2389,
2361,
2284,
2141,
2280,
2487,
2006,
1887,
1868,
1782,
1769,
3416,
11229,
2349,
1582,
1496,
1451,
1319,
1297,
1338,
1883,
3755,
1954,
2847,
1345,
1048,
928,
893,
848,
737,
784,
731,
869,
911,
740,
720,
629,
531,
538,
499,
467,
405,
387,
360,
327,
302,
238,
255,
218,
198,
154,
163,
106,
115,
106,
81,
64,
48,
35,
7,
11,
3,
3,
3,
3,
4,
1,
3,
4,
0,
3,
2,
0,
2,
2,
1,
3,
3,
0,
1,
1,
0,
3,
3,
0,
1,
0,
1,
2,
1,
2,
3,
0,
1,
1,
1,
1,
0,
0,
1,
1,
1,
1,
0,
0,
0,
0,
1,
0,
2,
0,
0,
0,
0,
0,
1,
0,
0,
0,
0,
0,
0,
0,
0,
0,
0,
0,
0,
0,
0,
0,
0,
0,
0,
0,
0,
0,
0,
0,
0,
0,
0,
0,
0,
0,
0,
0,
0,
0,
0,
0,
0,
0,
0,
0,
0,
0,
0,
0,
0,
0,
0,
0,
0,
0,
0,
0,
0,
0,
0,
0,
0,
0,
0,
0,
0,
0,
0,
0,
0,
0,
0,
0,
0,
0,
0,
0,
0,
0,
0,
0,
0,
0,
0,
0,
0,
0,
0,
0,
0,
0,
0,
0,
0,
0,
0,
0,
0,
0,
0,
0,
0,
0,
0,
0,
0,
0,
0,
0,
0,
0,
0,
0,
0,
0,
0,
0,
0,
0,
0,
0,
0,
0,
0,
0,
0,
0,
0,
0,
0,
0,
0,
0,
0,
0,
0,
#ENDOFDATA   :

File: MMM2 Spessartine[0][4].msa
#FORMAT      : EMSA/MAS Spectral Data File
#VERSION     : 1.0
#TITLE       : MMM2 Spessartine[0][all]
#DATE        : 29-SEP-2025
#TIME        : 00:44
#OWNER       : Unknown
#NPOINTS     : 4096
#NCOLUMNS    : 1
#XUNITS      : eV
#YUNITS      : counts
#DATATYPE    : Y
#XPERCHAN    : 9.99778
#OFFSET      : 1.69135
#BEAMKV      : 15
#SIGNALTYPE  : EDS
#ELEVANGLE   : 35
#AZIMANGLE   : 0
#LIVETIME    : 240.312
#REALTIME    : 256.751
#PROBECUR    : 1.21186
#TAUWIND     : 0
#TDEADLYR    : 0
#TACTLYR     : 0.045
#TALWIND     : 0.025
#CHOFFSET    : 0.0
#XLABEL      : Energy (eV)
#YLABEL      : Counts
#XPOSITION   : -19.75068
#YPOSITION   : 6.71662
#ZPOSITION   : 34.11879
#EDSDET      : SD
##SPECIMEN   : MMM2 Spessartine[0][all]
##DET_HASH   : 12273538-fd48-a23f-0a19-f1e6fa85caef
##CALIB_HASH : 6abaa72c-aa41-8738-0be9-f592914732f3
##WORKING    : 15.0 mm
##DET_NAME   : EDAX All
##DET_MODE   : MediumLE
#SPECTRUM    :
18,
286,
13389,
11640,
96602,
7772,
3230,
4033,
4436,
4903,
10010,
32305,
38051,
18987,
3622,
3283,
3577,
3016,
3083,
2867,
2789,
2766,
2582,
2589,
2300,
2319,
2742,
2206,
1983,
1992,
1891,
1723,
1718,
1615,
1528,
1489,
1386,
1348,
1296,
1218,
1269,
2308,
40210,
4275,
1060,
1428,
5562,
2303,
822,
836,
899,
830,
711,
786,
680,
666,
610,
573,
579,
556,
510,
524,
483,
472,
450,
431,
426,
407,
389,
348,
327,
349,
305,
301,
293,
245,
251,
253,
225,
242,
219,
173,
207,
187,
168,
152,
113,
124,
116,
101,
114,
104,
87,
77,
74,
60,
67,
60,
44,
38,
26,
23,
27,
22,
13,
12,
3,
2,
1,
0,
1,
1,
1,
1,
0,
0,
1,
1,
0,
0,
1,
1,
0,
0,
0,
0,
0,
0,
0,
1,
0,
0,
1,
0,
0,
0,
0,
0,
1,
0,
0,
0,
0,
0,
0,
0,
0,
0,
0,
0,
0,
0,
0,
0,
0,
0,
0,
0,
0,
0,
0,
0,
0,
0,
0,
0,
0,
0,
0,
0,
0,
0,
0,
0,
0,
0,
0,
0,
0,
0,
0,
0,
0,
0,
0,
0,
0,
0,
0,
0,
0,
0,
0,
0,
0,
0,
0,
0,
0,
0,
0,
0,
0,
0,
0,
0,
0,
0,
0,
0,
0,
0,
0,
0,
0,
0,
0,
0,
0,
0,
0,
0,
0,
0,
0,
0,
0,
0,
0,
0,
0,
0,
0,
0,
0,
0,
0,
0,
0,
0,
0,
0,
0,
0,
0,
0,
0,
0,
0,
0,
0,
0,
0,
0,
0,
0,
0,
0,
0,
0,
0,
0,
0,
0,
0,
0,
0,
0,
0,
0,
0,
0,
0,
0,
0,
0,
0,
0,
0,
0,
0,
0,
0,
0,
0,
0,
0,
0,
0,
0,
0,
0,
0,
0,
#ENDOFDATA   :

File: MMM2 Spessartine[1][4].msa
#FORMAT      : EMSA/MAS Spectral Data File
#VERSION     : 1.0
#TITLE       : MMM2 Spessartine[1][all]
#DATE        : 29-SEP-2025
#TIME        : 00:46
#OWNER       : Unknown
#NPOINTS     : 4096
#NCOLUMNS    : 1
#XUNITS      : eV
#YUNITS      : counts
#DATATYPE    : Y
#XPERCHAN    : 9.99778
#OFFSET      : 1.69135
#BEAMKV      : 15
#SIGNALTYPE  : EDS
#ELEVANGLE   : 35
#AZIMANGLE   : 0
#LIVETIME    : 240.308
#REALTIME    : 256.75
#PROBECUR    : 1.21186
#TAUWIND     : 0
#TDEADLYR    : 0
#TACTLYR     : 0.045
#TALWIND     : 0.025
#CHOFFSET    : 0.0
#XLABEL      : Energy (eV)
#YLABEL      : Counts
#XPOSITION   : -19.71099
#YPOSITION   : 6.76434
#ZPOSITION   : 34.11879
#EDSDET      : SD
##SPECIMEN   : MMM2 Spessartine[1][all]
##DET_HASH   : 12273538-fd48-a23f-0a19-f1e6fa85caef
##CALIB_HASH : 6abaa72c-aa41-8738-0be9-f592914732f3
##WORKING    : 15.0 mm
##DET_NAME   : EDAX All
##DET_MODE   : MediumLE
#SPECTRUM    :
26,
278,
13282,
11820,
96033,
7728,
3297,
3930,
4252,
4986,
10251,
32445,
38058,
18956,
3742,
3433,
3647,
3181,
2983,
2890,
2787,
2655,
2512,
2554,
2262,
2302,
2695,
2296,
1878,
1995,
1967,
1742,
1722,
1616,
1606,
1539,
1441,
1346,
1268,
1211,
1312,
2317,
39846,
4276,
1086,
1438,
5634,
2261,
858,
786,
892,
780,
755,
680,
693,
651,
609,
573,
568,
568,
523,
500,
509,
451,
408,
419,
414,
409,
360,
331,
327,
328,
336,
283,
304,
269,
263,
237,
242,
211,
190,
181,
180,
165,
159,
141,
151,
127,
106,
125,
104,
97,
82,
65,
62,
66,
71,
45,
39,
34,
30,
26,
28,
17,
18,
8,
6,
1,
0,
1,
1,
1,
1,
1,
0,
1,
0,
0,
0,
0,
0,
0,
0,
0,
1,
0,
0,
0,
1,
0,
0,
0,
0,
0,
0,
0,
0,
0,
0,
0,
0,
0,
0,
0,
0,
0,
0,
0,
0,
0,
0,
0,
0,
0,
0,
0,
0,
0,
0,
0,
0,
0,
0,
0,
0,
0,
0,
0,
0,
0,
0,
0,
0,
0,
0,
0,
0,
0,
0,
0,
0,
0,
0,
0,
0,
0,
0,
1,
0,
0,
0,
0,
0,
0,
0,
0,
0,
0,
0,
0,
0,
0,
0,
0,
0,
0,
0,
0,
0,
0,
0,
0,
0,
0,
0,
0,
0,
0,
0,
0,
0,
0,
0,
0,
0,
0,
0,
0,
0,
0,
0,
0,
0,
0,
0,
0,
0,
0,
0,
0,
0,
0,
0,
0,
0,
0,
0,
0,
0,
0,
0,
0,
0,
0,
0,
0,
0,
0,
0,
0,
0,
0,
0,
0,
0,
0,
0,
0,
0,
0,
0,
0,
0,
0,
0,
0,
0,
0,
0,
0,
0,
0,
0,
0,
0,
0,
0,
0,
0,
0,
0,
0,
0,
0,
#ENDOFDATA   :

File: MMM2 Spessartine[2][4].msa
#FORMAT      : EMSA/MAS Spectral Data File
#VERSION     : 1.0
#TITLE       : MMM2 Spessartine[2][all]
#DATE        : 29-SEP-2025
#TIME        : 00:47
#OWNER       : Unknown
#NPOINTS     : 4096
#NCOLUMNS    : 1
#XUNITS      : eV
#YUNITS      : counts
#DATATYPE    : Y
#XPERCHAN    : 9.99778
#OFFSET      : 1.69135
#BEAMKV      : 15
#SIGNALTYPE  : EDS
#ELEVANGLE   : 35
#AZIMANGLE   : 0
#LIVETIME    : 240.361
#REALTIME    : 256.804
#PROBECUR    : 1.21186
#TAUWIND     : 0
#TDEADLYR    : 0
#TACTLYR     : 0.045
#TALWIND     : 0.025
#CHOFFSET    : 0.0
#XLABEL      : Energy (eV)
#YLABEL      : Counts
#XPOSITION   : -19.79122
#YPOSITION   : 6.66742
#ZPOSITION   : 34.11879
#EDSDET      : SD
##SPECIMEN   : MMM2 Spessartine[2][all]
##DET_HASH   : 12273538-fd48-a23f-0a19-f1e6fa85caef
##CALIB_HASH : 6abaa72c-aa41-8738-0be9-f592914732f3
##WORKING    : 15.0 mm
##DET_NAME   : EDAX All
##DET_MODE   : MediumLE
#SPECTRUM    :
21,
283,
13221,
11632,
96595,
7991,
3188,
3992,
4318,
4905,
10181,
32487,
37943,
18976,
3594,
3300,
3711,
3179,
2977,
2865,
2773,
2733,
2653,
2629,
2321,
2317,
2671,
2189,
1909,
1977,
1962,
1757,
1709,
1619,
1599,
1475,
1403,
1379,
1291,
1215,
1290,
2213,
39855,
4463,
1046,
1437,
5661,
2268,
844,
821,
922,
770,
704,
714,
719,
688,
651,
590,
562,
571,
546,
491,
516,
482,
428,
463,
365,
398,
385,
333,
339,
339,
322,
296,
259,
282,
240,
247,
213,
217,
205,
203,
187,
166,
150,
144,
134,
139,
133,
91,
110,
103,
68,
87,
66,
72,
61,
46,
48,
35,
34,
34,
23,
21,
13,
10,
7,
5,
0,
0,
1,
0,
0,
0,
0,
0,
0,
0,
1,
0,
0,
0,
0,
0,
0,
0,
0,
0,
1,
0,
0,
0,
0,
1,
0,
0,
0,
0,
0,
0,
0,
0,
0,
0,
0,
0,
0,
0,
0,
0,
0,
0,
0,
0,
0,
0,
0,
0,
0,
0,
0,
0,
0,
0,
0,
0,
0,
0,
0,
0,
0,
0,
0,
0,
0,
0,
0,
0,
0,
0,
0,
0,
0,
0,
0,
0,
0,
0,
0,
0,
0,
0,
0,
0,
0,
0,
0,
0,
0,
0,
0,
0,
0,
0,
0,
0,
0,
0,
0,
0,
0,
0,
0,
0,
0,
0,
0,
0,
0,
0,
0,
0,
0,
0,
0,
0,
0,
0,
0,
0,
0,
0,
0,
0,
0,
0,
0,
0,
0,
0,
0,
0,
0,
0,
0,
0,
0,
0,
0,
0,
0,
0,
0,
0,
0,
0,
0,
0,
0,
0,
0,
0,
0,
0,
0,
0,
0,
0,
0,
0,
0,
0,
0,
0,
0,
0,
0,
0,
0,
0,
0,
0,
0,
0,
0,
0,
0,
0,
0,
0,
0,
0,
0,
0,
#ENDOFDATA   :

File: MMM2 Spessartine[3][4].msa
#FORMAT      : EMSA/MAS Spectral Data File
#VERSION     : 1.0
#TITLE       : MMM2 Spessartine[3][all]
#DATE        : 29-SEP-2025
#TIME        : 00:48
#OWNER       : Unknown
#NPOINTS     : 4096
#NCOLUMNS    : 1
#XUNITS      : eV
#YUNITS      : counts
#DATATYPE    : Y
#XPERCHAN    : 9.99778
#OFFSET      : 1.69135
#BEAMKV      : 15
#SIGNALTYPE  : EDS
#ELEVANGLE   : 35
#AZIMANGLE   : 0
#LIVETIME    : 240.388
#REALTIME    : 256.81
#PROBECUR    : 1.21186
#TAUWIND     : 0
#TDEADLYR    : 0
#TACTLYR     : 0.045
#TALWIND     : 0.025
#CHOFFSET    : 0.0
#XLABEL      : Energy (eV)
#YLABEL      : Counts
#XPOSITION   : -19.75445
#YPOSITION   : 6.63347
#ZPOSITION   : 34.11879
#EDSDET      : SD
##SPECIMEN   : MMM2 Spessartine[3][all]
##DET_HASH   : 12273538-fd48-a23f-0a19-f1e6fa85caef
##CALIB_HASH : 6abaa72c-aa41-8738-0be9-f592914732f3
##WORKING    : 15.0 mm
##DET_NAME   : EDAX All
##DET_MODE   : MediumLE
#SPECTRUM    :
27,
305,
13733,
11716,
96357,
7850,
3238,
3944,
4361,
5091,
10283,
31946,
38155,
19001,
3665,
3297,
3626,
3175,
2978,
2964,
2796,
2706,
2602,
2585,
2493,
2369,
2664,
2117,
2049,
1937,
1926,
1710,
1747,
1629,
1581,
1509,
1469,
1410,
1319,
1258,
1283,
2302,
40091,
4192,
1132,
1362,
5622,
2304,
760,
847,
838,
787,
745,
763,
700,
768,
662,
607,
574,
579,
561,
522,
518,
464,
453,
443,
409,
389,
362,
348,
336,
353,
335,
305,
287,
278,
226,
240,
237,
236,
214,
217,
164,
151,
176,
153,
129,
111,
104,
101,
98,
83,
70,
87,
72,
62,
53,
45,
47,
27,
38,
25,
27,
21,
21,
7,
7,
3,
0,
1,
1,
1,
1,
0,
0,
0,
0,
0,
0,
0,
0,
1,
0,
0,
1,
1,
0,
0,
1,
1,
0,
0,
0,
0,
0,
0,
0,
0,
0,
0,
0,
0,
0,
0,
0,
0,
0,
0,
0,
0,
0,
0,
0,
0,
0,
0,
0,
0,
0,
0,
0,
0,
0,
0,
0,
0,
0,
0,
0,
0,
0,
0,
0,
0,
0,
0,
0,
0,
0,
0,
0,
0,
0,
0,
0,
0,
0,
0,
0,
0,
0,
0,
0,
0,
0,
0,
0,
0,
0,
0,
0,
0,
0,
0,
0,
0,
0,
0,
0,
0,
0,
0,
0,
0,
0,
0,
0,
0,
0,
0,
0,
0,
0,
0,
0,
0,
0,
0,
0,
0,
0,
0,
0,
0,
0,
0,
0,
0,
0,
0,
0,
0,
0,
0,
0,
0,
0,
0,
0,
0,
0,
0,
0,
0,
0,
0,
0,
0,
0,
0,
0,
0,
0,
0,
0,
0,
0,
0,
0,
0,
0,
0,
0,
0,
0,
0,
0,
0,
0,
0,
0,
0,
0,
0,
0,
0,
0,
0,
0,
0,
0,
0,
0,
0,
#ENDOFDATA   :