Folder: spex_quant/N132962/Quantification/15 keV/Mengason MM2

Note: README.md
# spex_quant
Spectral data for evaluating `spex`.  It contains both standard spectra and sample spectra.

 * N132962 represents the TESCAN MIRA4 with 4 silicon nitride window silicon drift detectors in 217 D113 at NIST Gaitherburg.
  * Reference set: "N132962 20 keV" built using 'n132962_20keV.bat' for 20 keV analyses

File: MMM2 C[2][4].msa
#FORMAT      : EMSA/MAS Spectral Data File
#VERSION     : 1.0
#TITLE       : MMM2 C[2][all]
#DATE        : 28-SEP-2025
#TIME        : 23:55
#OWNER       : Unknown
#NPOINTS     : 4096
#NCOLUMNS    : 1
#XUNITS      : eV
#YUNITS      : counts
#DATATYPE    : Y
#XPERCHAN    : 9.99778
#OFFSET      : 1.69135
#BEAMKV      : 15
#SIGNALTYPE  : EDS
#ELEVANGLE   : 35
#AZIMANGLE   : 0
#LIVETIME    : 240.4087
#REALTIME    : 253.868
#PROBECUR    : 1.21151
#TAUWIND     : 0
#TDEADLYR    : 0
#TACTLYR     : 0.045
#TALWIND     : 0.025
#CHOFFSET    : 0.0
#XLABEL      : Energy (eV)
#YLABEL      : Counts
#XPOSITION   : -8.73737
#YPOSITION   : 3.1588
#ZPOSITION   : 34.11879
#EDSDET      : SD
##SPECIMEN   : MMM2 C[2][all]
##D2STDCMP   : C,(C:100.0)
##DET_HASH   : 12273538-fd48-a23f-0a19-f1e6fa85caef
##CALIB_HASH : 6abaa72c-aa41-8738-0be9-f592914732f3
##WORKING    : 15.0 mm
##DET_NAME   : EDAX All
##DET_MODE   : MediumLE
#SPECTRUM    :
26,
1527,
559470,
881,
3513,
1728,
2200,
2562,
2826,
2863,
2760,
2685,
2480,
2319,
1894,
1754,
1620,
1486,
1356,
1329,
1228,
1031,
1051,
954,
947,
830,
828,
765,
686,
656,
659,
639,
605,
572,
533,
483,
496,
463,
429,
420,
420,
376,
353,
327,
327,
325,
321,
301,
287,
274,
238,
206,
223,
208,
194,
224,
210,
179,
161,
145,
176,
125,
141,
121,
139,
103,
132,
121,
102,
105,
77,
93,
71,
89,
62,
74,
61,
85,
61,
48,
49,
51,
43,
30,
37,
34,
29,
29,
23,
24,
18,
19,
17,
20,
15,
16,
14,
10,
12,
10,
3,
1,
3,
5,
1,
2,
0,
0,
0,
0,
0,
0,
0,
0,
0,
0,
0,
0,
0,
0,
0,
0,
0,
0,
0,
0,
0,
0,
0,
0,
0,
0,
0,
0,
0,
0,
0,
0,
0,
0,
0,
0,
0,
0,
0,
0,
0,
0,
0,
0,
0,
0,
0,
0,
0,
0,
0,
0,
0,
0,
0,
0,
0,
0,
0,
0,
0,
0,
0,
0,
0,
0,
0,
0,
0,
0,
0,
0,
0,
0,
0,
0,
0,
0,
0,
0,
0,
0,
0,
0,
0,
0,
0,
0,
0,
0,
0,
0,
0,
0,
0,
0,
0,
0,
0,
0,
0,
0,
0,
0,
0,
0,
0,
0,
0,
0,
0,
0,
0,
0,
0,
0,
0,
0,
0,
0,
0,
0,
0,
0,
0,
0,
0,
0,
0,
0,
0,
0,
0,
0,
0,
0,
0,
0,
0,
0,
0,
0,
0,
0,
0,
0,
0,
0,
0,
0,
0,
0,
0,
0,
0,
0,
0,
0,
0,
0,
0,
0,
0,
0,
0,
0,
0,
0,
0,
0,
0,
0,
0,
0,
0,
0,
0,
0,
0,
0,
0,
0,
0,
0,
0,
0,
0,
0,
#ENDOFDATA   :

File: MMM2 C[7][4].msa
#FORMAT      : EMSA/MAS Spectral Data File
#VERSION     : 1.0
#TITLE       : MMM2 C[7][all]
#DATE        : 29-SEP-2025
#TIME        : 00:01
#OWNER       : Unknown
#NPOINTS     : 4096
#NCOLUMNS    : 1
#XUNITS      : eV
#YUNITS      : counts
#DATATYPE    : Y
#XPERCHAN    : 9.99778
#OFFSET      : 1.69135
#BEAMKV      : 15
#SIGNALTYPE  : EDS
#ELEVANGLE   : 35
#AZIMANGLE   : 0
#LIVETIME    : 240.472
#REALTIME    : 253.803
#PROBECUR    : 1.21151
#TAUWIND     : 0
#TDEADLYR    : 0
#TACTLYR     : 0.045
#TALWIND     : 0.025
#CHOFFSET    : 0.0
#XLABEL      : Energy (eV)
#YLABEL      : Counts
#XPOSITION   : -8.79701
#YPOSITION   : 3.09878
#ZPOSITION   : 34.11879
#EDSDET      : SD
##SPECIMEN   : MMM2 C[7][all]
##D2STDCMP   : C,(C:100.0)
##DET_HASH   : 12273538-fd48-a23f-0a19-f1e6fa85caef
##CALIB_HASH : 6abaa72c-aa41-8738-0be9-f592914732f3
##WORKING    : 15.0 mm
##DET_NAME   : EDAX All
##DET_MODE   : MediumLE
#SPECTRUM    :
24,
1475,
554429,
891,
3597,
1752,
2198,
2521,
2749,
2821,
2791,
2545,
2502,
2324,
1822,
1754,
1627,
1500,
1302,
1278,
1232,
1098,
1026,
965,
922,
827,
799,
771,
702,
714,
612,
625,
632,
581,
517,
496,
454,
465,
438,
440,
440,
363,
361,
351,
324,
324,
311,
260,
260,
275,
250,
216,
251,
199,
219,
207,
210,
168,
169,
167,
154,
155,
151,
122,
122,
126,
110,
129,
93,
108,
94,
90,
94,
77,
84,
68,
51,
59,
55,
47,
41,
56,
45,
35,
39,
30,
33,
31,
29,
32,
32,
16,
26,
15,
17,
21,
8,
13,
9,
4,
7,
9,
3,
8,
3,
2,
2,
2,
0,
0,
0,
0,
0,
0,
0,
0,
0,
0,
0,
0,
0,
0,
0,
0,
0,
0,
0,
0,
0,
0,
0,
0,
0,
0,
0,
0,
0,
0,
0,
0,
0,
0,
0,
0,
0,
0,
0,
0,
0,
0,
0,
0,
0,
0,
0,
0,
0,
0,
0,
0,
0,
0,
0,
0,
0,
0,
0,
0,
0,
0,
0,
0,
0,
0,
0,
0,
0,
0,
0,
0,
0,
0,
0,
0,
0,
0,
0,
0,
0,
0,
0,
0,
0,
0,
0,
0,
0,
0,
0,
0,
0,
0,
0,
0,
0,
0,
0,
0,
0,
0,
0,
0,
0,
0,
0,
0,
0,
0,
0,
0,
0,
0,
0,
0,
0,
0,
0,
0,
0,
0,
0,
0,
0,
0,
0,
0,
0,
0,
0,
0,
0,
0,
0,
0,
0,
0,
0,
0,
0,
0,
0,
0,
0,
0,
0,
0,
0,
0,
0,
0,
0,
0,
0,
0,
0,
0,
0,
0,
0,
0,
0,
0,
0,
0,
0,
0,
0,
0,
0,
0,
0,
0,
0,
0,
0,
0,
0,
0,
0,
0,
0,
0,
0,
0,
#ENDOFDATA   :

File: MMM2 C[8][4].msa
#FORMAT      : EMSA/MAS Spectral Data File
#VERSION     : 1.0
#TITLE       : MMM2 C[8][all]
#DATE        : 29-SEP-2025
#TIME        : 00:02
#OWNER       : Unknown
#NPOINTS     : 4096
#NCOLUMNS    : 1
#XUNITS      : eV
#YUNITS      : counts
#DATATYPE    : Y
#XPERCHAN    : 9.99778
#OFFSET      : 1.69135
#BEAMKV      : 15
#SIGNALTYPE  : EDS
#ELEVANGLE   : 35
#AZIMANGLE   : 0
#LIVETIME    : 240.5
#REALTIME    : 253.934
#PROBECUR    : 1.21151
#TAUWIND     : 0
#TDEADLYR    : 0
#TACTLYR     : 0.045
#TALWIND     : 0.025
#CHOFFSET    : 0.0
#XLABEL      : Energy (eV)
#YLABEL      : Counts
#XPOSITION   : -8.7805
#YPOSITION   : 3.07998
#ZPOSITION   : 34.11879
#EDSDET      : SD
##SPECIMEN   : MMM2 C[8][all]
##D2STDCMP   : C,(C:100.0)
##DET_HASH   : 12273538-fd48-a23f-0a19-f1e6fa85caef
##CALIB_HASH : 6abaa72c-aa41-8738-0be9-f592914732f3
##WORKING    : 15.0 mm
##DET_NAME   : EDAX All
##DET_MODE   : MediumLE
#SPECTRUM    :
17,
1489,
558883,
887,
3544,
1703,
2217,
2597,
2754,
2752,
2795,
2585,
2492,
2363,
1842,
1847,
1617,
1466,
1350,
1326,
1220,
1089,
1053,
1000,
910,
913,
815,
725,
673,
677,
652,
624,
565,
557,
530,
481,
444,
482,
445,
415,
409,
354,
347,
334,
267,
304,
333,
261,
270,
266,
285,
239,
236,
201,
197,
195,
207,
157,
176,
176,
147,
152,
148,
117,
122,
128,
128,
103,
100,
89,
80,
72,
76,
78,
75,
65,
68,
54,
49,
53,
44,
53,
60,
50,
39,
29,
28,
34,
23,
18,
23,
22,
17,
20,
12,
10,
19,
7,
10,
5,
6,
8,
10,
1,
3,
0,
2,
0,
0,
0,
0,
0,
0,
0,
0,
0,
0,
0,
0,
0,
0,
0,
0,
1,
0,
0,
0,
0,
0,
0,
0,
0,
0,
0,
0,
0,
0,
0,
0,
0,
0,
0,
0,
0,
0,
0,
0,
0,
1,
0,
0,
0,
0,
0,
0,
0,
0,
0,
0,
0,
0,
0,
0,
0,
0,
0,
0,
0,
0,
0,
0,
0,
0,
0,
0,
0,
0,
0,
0,
0,
0,
0,
0,
0,
0,
0,
0,
0,
0,
0,
0,
0,
0,
0,
0,
0,
0,
0,
0,
0,
0,
0,
0,
0,
0,
0,
0,
0,
0,
0,
0,
0,
0,
0,
0,
0,
0,
0,
0,
0,
0,
0,
0,
0,
0,
0,
0,
0,
0,
0,
0,
0,
0,
0,
0,
0,
0,
0,
0,
0,
0,
0,
0,
0,
0,
0,
0,
0,
0,
0,
0,
0,
0,
0,
0,
0,
0,
0,
0,
0,
0,
0,
0,
0,
0,
0,
0,
0,
0,
0,
0,
0,
0,
0,
0,
0,
0,
0,
0,
0,
0,
0,
0,
0,
0,
0,
0,
0,
0,
0,
0,
0,
0,
0,
#ENDOFDATA   :

File: MMM2 Manganotantalite[0][4].msa
#FORMAT      : EMSA/MAS Spectral Data File
#VERSION     : 1.0
#TITLE       : MMM2 Manganotantalite[0][all]
#DATE        : 28-SEP-2025
#TIME        : 22:50
#OWNER       : Unknown
#NPOINTS     : 4096
#NCOLUMNS    : 1
#XUNITS      : eV
#YUNITS      : counts
#DATATYPE    : Y
#XPERCHAN    : 9.99778
#OFFSET      : 1.69135
#BEAMKV      : 15
#SIGNALTYPE  : EDS
#ELEVANGLE   : 35
#AZIMANGLE   : 0
#LIVETIME    : 240.154
#REALTIME    : 259.631
#PROBECUR    : 1.2132
#TAUWIND     : 0
#TDEADLYR    : 0
#TACTLYR     : 0.045
#TALWIND     : 0.025
#CHOFFSET    : 0.0
#XLABEL      : Energy (eV)
#YLABEL      : Counts
#XPOSITION   : -22.44807
#YPOSITION   : -0.36888
#ZPOSITION   : 34.11879
#EDSDET      : SD
##SPECIMEN   : MMM2 Manganotantalite[0][all]
##DET_HASH   : 12273538-fd48-a23f-0a19-f1e6fa85caef
##CALIB_HASH : 6abaa72c-aa41-8738-0be9-f592914732f3
##WORKING    : 15.0 mm
##DET_NAME   : EDAX All
##DET_MODE   : MediumLE
#SPECTRUM    :
28,
1103,
18995,
8678,
35198,
10313,
7289,
8075,
8740,
11490,
11850,
10561,
126412,
29435,
10768,
14995,
23312,
7267,
5061,
5299,
4886,
4708,
4822,
4868,
4680,
4690,
4406,
4311,
4278,
4234,
4081,
3928,
4536,
3814,
3695,
3630,
3396,
3353,
3263,
3177,
3057,
3425,
17297,
3874,
2740,
3361,
6102,
2931,
2383,
2282,
2397,
2587,
2265,
2028,
1940,
1918,
1821,
2419,
10892,
3304,
1675,
1629,
1545,
1396,
1314,
1464,
2553,
3454,
1919,
2742,
1257,
1112,
960,
931,
927,
868,
820,
922,
1170,
762,
802,
704,
651,
584,
560,
513,
525,
460,
446,
367,
371,
313,
326,
287,
270,
230,
231,
197,
182,
135,
124,
124,
92,
83,
55,
48,
24,
10,
6,
3,
2,
1,
1,
1,
2,
1,
8,
2,
3,
0,
1,
6,
2,
1,
3,
1,
2,
2,
3,
2,
3,
0,
1,
0,
0,
1,
2,
5,
3,
1,
1,
1,
0,
0,
0,
1,
0,
0,
1,
1,
0,
0,
0,
0,
0,
0,
0,
0,
0,
0,
0,
0,
0,
0,
0,
2,
0,
0,
0,
0,
0,
0,
0,
0,
0,
0,
0,
1,
0,
0,
0,
0,
0,
0,
0,
0,
0,
0,
0,
0,
0,
0,
0,
0,
0,
0,
0,
0,
0,
0,
0,
0,
0,
0,
0,
0,
0,
0,
0,
0,
0,
0,
0,
0,
0,
0,
0,
0,
0,
0,
0,
0,
0,
0,
0,
0,
0,
0,
0,
0,
0,
0,
0,
0,
0,
0,
0,
0,
0,
0,
0,
0,
0,
0,
0,
0,
0,
0,
0,
0,
0,
0,
0,
0,
0,
0,
0,
0,
0,
0,
0,
0,
0,
0,
0,
0,
0,
0,
0,
0,
0,
0,
0,
0,
0,
0,
0,
0,
0,
0,
0,
0,
0,
0,
0,
0,
0,
0,
0,
0,
0,
0,
0,
0,
#ENDOFDATA   :

File: MMM2 Manganotantalite[1][4].msa
#FORMAT      : EMSA/MAS Spectral Data File
#VERSION     : 1.0
#TITLE       : MMM2 Manganotantalite[1][all]
#DATE        : 28-SEP-2025
#TIME        : 22:51
#OWNER       : Unknown
#NPOINTS     : 4096
#NCOLUMNS    : 1
#XUNITS      : eV
#YUNITS      : counts
#DATATYPE    : Y
#XPERCHAN    : 9.99778
#OFFSET      : 1.69135
#BEAMKV      : 15
#SIGNALTYPE  : EDS
#ELEVANGLE   : 35
#AZIMANGLE   : 0
#LIVETIME    : 240.213
#REALTIME    : 259.695
#PROBECUR    : 1.2132
#TAUWIND     : 0
#TDEADLYR    : 0
#TACTLYR     : 0.045
#TALWIND     : 0.025
#CHOFFSET    : 0.0
#XLABEL      : Energy (eV)
#YLABEL      : Counts
#XPOSITION   : -22.44302
#YPOSITION   : -0.37646
#ZPOSITION   : 34.11879
#EDSDET      : SD
##SPECIMEN   : MMM2 Manganotantalite[1][all]
##DET_HASH   : 12273538-fd48-a23f-0a19-f1e6fa85caef
##CALIB_HASH : 6abaa72c-aa41-8738-0be9-f592914732f3
##WORKING    : 15.0 mm
##DET_NAME   : EDAX All
##DET_MODE   : MediumLE
#SPECTRUM    :
30,
1149,
19363,
8747,
35611,
10544,
7293,
7964,
8715,
11458,
11875,
10424,
126421,
29458,
10828,
15049,
23444,
7261,
5115,
5243,
4888,
4901,
4701,
4736,
4767,
4686,
4457,
4326,
4252,
4205,
4074,
3988,
4602,
3863,
3651,
3609,
3472,
3374,
3261,
3150,
3124,
3383,
17348,
3943,
2723,
3288,
5838,
2993,
2346,
2305,
2400,
2632,
2150,
1974,
1962,
1937,
1901,
2394,
10828,
3315,
1816,
1557,
1531,
1430,
1340,
1419,
2468,
3522,
1872,
2710,
1286,
1076,
987,
928,
906,
870,
862,
946,
1197,
778,
775,
714,
614,
601,
519,
457,
429,
471,
403,
393,
363,
342,
333,
268,
259,
244,
237,
213,
175,
145,
138,
118,
105,
67,
51,
47,
27,
12,
2,
6,
3,
5,
1,
1,
2,
4,
4,
2,
3,
1,
3,
0,
3,
2,
2,
1,
0,
1,
1,
1,
0,
2,
2,
0,
1,
0,
2,
1,
1,
1,
1,
1,
0,
1,
0,
0,
0,
0,
0,
0,
1,
0,
0,
1,
0,
0,
0,
0,
0,
0,
0,
0,
0,
1,
0,
0,
0,
0,
0,
0,
0,
0,
0,
0,
0,
0,
0,
0,
0,
0,
0,
0,
0,
0,
0,
0,
0,
0,
0,
0,
0,
0,
0,
0,
0,
0,
0,
0,
0,
0,
0,
0,
0,
0,
0,
0,
0,
0,
0,
0,
0,
0,
0,
0,
0,
0,
0,
0,
0,
0,
0,
0,
0,
0,
0,
0,
0,
0,
0,
0,
0,
0,
0,
0,
0,
0,
0,
0,
0,
0,
0,
0,
0,
0,
0,
0,
0,
0,
0,
0,
0,
0,
0,
0,
0,
0,
0,
0,
0,
0,
0,
0,
0,
0,
0,
0,
0,
0,
0,
0,
0,
0,
0,
0,
0,
0,
0,
0,
0,
0,
0,
0,
0,
0,
0,
0,
0,
0,
0,
0,
0,
0,
0,
0,
#ENDOFDATA   :

File: MMM2 Manganotantalite[2][4].msa
#FORMAT      : EMSA/MAS Spectral Data File
#VERSION     : 1.0
#TITLE       : MMM2 Manganotantalite[2][all]
#DATE        : 28-SEP-2025
#TIME        : 22:53
#OWNER       : Unknown
#NPOINTS     : 4096
#NCOLUMNS    : 1
#XUNITS      : eV
#YUNITS      : counts
#DATATYPE    : Y
#XPERCHAN    : 9.99778
#OFFSET      : 1.69135
#BEAMKV      : 15
#SIGNALTYPE  : EDS
#ELEVANGLE   : 35
#AZIMANGLE   : 0
#LIVETIME    : 240.429
#REALTIME    : 259.89
#PROBECUR    : 1.2132
#TAUWIND     : 0
#TDEADLYR    : 0
#TACTLYR     : 0.045
#TALWIND     : 0.025
#CHOFFSET    : 0.0
#XLABEL      : Energy (eV)
#YLABEL      : Counts
#XPOSITION   : -22.41367
#YPOSITION   : -0.28555
#ZPOSITION   : 34.11879
#EDSDET      : SD
##SPECIMEN   : MMM2 Manganotantalite[2][all]
##DET_HASH   : 12273538-fd48-a23f-0a19-f1e6fa85caef
##CALIB_HASH : 6abaa72c-aa41-8738-0be9-f592914732f3
##WORKING    : 15.0 mm
##DET_NAME   : EDAX All
##DET_MODE   : MediumLE
#SPECTRUM    :
22,
1122,
19096,
8534,
35617,
10215,
7212,
8011,
8672,
11361,
12023,
10547,
126010,
29118,
11013,
14851,
23807,
7300,
5090,
5256,
4836,
4740,
4820,
4667,
4688,
4693,
4575,
4330,
4420,
4155,
4051,
3987,
4579,
3820,
3550,
3712,
3356,
3307,
3160,
3211,
3062,
3512,
17424,
4024,
2802,
3334,
5934,
3021,
2396,
2378,
2458,
2622,
2119,
2112,
2063,
1867,
1899,
2559,
10615,
3238,
1621,
1532,
1472,
1468,
1317,
1434,
2503,
3471,
1865,
2723,
1265,
1070,
941,
935,
846,
869,
804,
946,
1125,
718,
779,
692,
648,
576,
537,
507,
453,
489,
411,
401,
362,
354,
317,
290,
249,
268,
226,
203,
182,
153,
133,
122,
98,
69,
50,
41,
23,
3,
2,
8,
6,
3,
3,
2,
0,
0,
2,
3,
2,
1,
2,
3,
1,
0,
4,
3,
1,
1,
1,
1,
2,
1,
4,
3,
0,
1,
0,
0,
0,
1,
0,
0,
1,
2,
1,
0,
0,
0,
0,
0,
0,
0,
2,
1,
0,
0,
0,
1,
0,
0,
0,
0,
0,
0,
1,
0,
0,
0,
1,
0,
0,
0,
1,
0,
0,
0,
0,
0,
0,
0,
0,
0,
0,
0,
0,
0,
0,
0,
0,
0,
0,
0,
0,
0,
0,
0,
0,
0,
0,
0,
0,
0,
0,
0,
0,
0,
0,
0,
0,
0,
0,
0,
0,
0,
0,
0,
0,
0,
0,
0,
0,
0,
0,
0,
0,
0,
0,
0,
0,
0,
0,
0,
0,
0,
0,
0,
0,
0,
0,
0,
0,
0,
0,
0,
0,
0,
0,
0,
0,
0,
0,
0,
0,
0,
0,
0,
0,
0,
0,
0,
0,
0,
0,
0,
0,
0,
0,
0,
0,
0,
0,
0,
0,
0,
0,
0,
0,
0,
0,
0,
0,
0,
0,
0,
0,
0,
0,
0,
0,
0,
0,
0,
0,
0,
#ENDOFDATA   :

File: MMM2 Manganotantalite[3][4].msa
#FORMAT      : EMSA/MAS Spectral Data File
#VERSION     : 1.0
#TITLE       : MMM2 Manganotantalite[3][all]
#DATE        : 28-SEP-2025
#TIME        : 22:54
#OWNER       : Unknown
#NPOINTS     : 4096
#NCOLUMNS    : 1
#XUNITS      : eV
#YUNITS      : counts
#DATATYPE    : Y
#XPERCHAN    : 9.99778
#OFFSET      : 1.69135
#BEAMKV      : 15
#SIGNALTYPE  : EDS
#ELEVANGLE   : 35
#AZIMANGLE   : 0
#LIVETIME    : 240.357
#REALTIME    : 259.879
#PROBECUR    : 1.2132
#TAUWIND     : 0
#TDEADLYR    : 0
#TACTLYR     : 0.045
#TALWIND     : 0.025
#CHOFFSET    : 0.0
#XLABEL      : Energy (eV)
#YLABEL      : Counts
#XPOSITION   : -22.44803
#YPOSITION   : -0.39288
#ZPOSITION   : 34.11879
#EDSDET      : SD
##SPECIMEN   : MMM2 Manganotantalite[3][all]
##DET_HASH   : 12273538-fd48-a23f-0a19-f1e6fa85caef
##CALIB_HASH : 6abaa72c-aa41-8738-0be9-f592914732f3
##WORKING    : 15.0 mm
##DET_NAME   : EDAX All
##DET_MODE   : MediumLE
#SPECTRUM    :
21,
1088,
19299,
8573,
35563,
10547,
7321,
7989,
8877,
11484,
11970,
10427,
125564,
29070,
10860,
15147,
23741,
7360,
5215,
5343,
4836,
4757,
4769,
4614,
4710,
4788,
4450,
4318,
4254,
4184,
4042,
4100,
4468,
3704,
3639,
3620,
3482,
3375,
3307,
3201,
2997,
3408,
17512,
3945,
2704,
3221,
5968,
3034,
2332,
2332,
2538,
2751,
2089,
2044,
1974,
1851,
1825,
2491,
10571,
3371,
1673,
1507,
1426,
1474,
1320,
1432,
2509,
3568,
1825,
2819,
1259,
1088,
1029,
928,
900,
849,
862,
958,
1166,
828,
756,
678,
647,
634,
549,
517,
454,
493,
445,
393,
373,
357,
344,
302,
264,
244,
226,
234,
197,
160,
129,
105,
85,
94,
58,
36,
28,
8,
2,
9,
6,
3,
4,
2,
1,
3,
3,
0,
2,
1,
1,
1,
2,
2,
2,
1,
4,
4,
0,
2,
1,
2,
1,
1,
2,
3,
0,
1,
1,
0,
0,
0,
0,
1,
1,
2,
0,
0,
0,
0,
0,
1,
1,
0,
0,
0,
0,
1,
0,
0,
0,
0,
0,
0,
0,
0,
0,
0,
0,
0,
0,
0,
0,
0,
0,
0,
0,
0,
0,
1,
0,
0,
0,
0,
0,
0,
0,
0,
0,
0,
0,
0,
0,
0,
0,
0,
0,
0,
0,
0,
0,
0,
0,
0,
0,
0,
0,
0,
0,
0,
0,
0,
0,
0,
0,
0,
0,
0,
0,
0,
0,
0,
0,
0,
0,
0,
0,
0,
0,
0,
0,
0,
0,
0,
0,
0,
0,
0,
0,
0,
0,
0,
0,
0,
0,
0,
0,
0,
0,
0,
0,
0,
0,
0,
0,
0,
0,
0,
0,
0,
0,
0,
0,
0,
0,
0,
0,
0,
0,
0,
0,
0,
0,
0,
0,
0,
0,
0,
0,
0,
0,
0,
0,
0,
0,
0,
0,
0,
0,
0,
0,
0,
0,
0,
#ENDOFDATA   :

File: MMM2 Manganotantalite[4][4].msa
#FORMAT      : EMSA/MAS Spectral Data File
#VERSION     : 1.0
#TITLE       : MMM2 Manganotantalite[4][all]
#DATE        : 28-SEP-2025
#TIME        : 22:55
#OWNER       : Unknown
#NPOINTS     : 4096
#NCOLUMNS    : 1
#XUNITS      : eV
#YUNITS      : counts
#DATATYPE    : Y
#XPERCHAN    : 9.99778
#OFFSET      : 1.69135
#BEAMKV      : 15
#SIGNALTYPE  : EDS
#ELEVANGLE   : 35
#AZIMANGLE   : 0
#LIVETIME    : 240.232
#REALTIME    : 259.695
#PROBECUR    : 1.2132
#TAUWIND     : 0
#TDEADLYR    : 0
#TACTLYR     : 0.045
#TALWIND     : 0.025
#CHOFFSET    : 0.0
#XLABEL      : Energy (eV)
#YLABEL      : Counts
#XPOSITION   : -22.38373
#YPOSITION   : -0.36888
#ZPOSITION   : 34.11879
#EDSDET      : SD
##SPECIMEN   : MMM2 Manganotantalite[4][all]
##DET_HASH   : 12273538-fd48-a23f-0a19-f1e6fa85caef
##CALIB_HASH : 6abaa72c-aa41-8738-0be9-f592914732f3
##WORKING    : 15.0 mm
##DET_NAME   : EDAX All
##DET_MODE   : MediumLE
#SPECTRUM    :
23,
1155,
19128,
8603,
35652,
10549,
7088,
8087,
8659,
11486,
11675,
10490,
125346,
29109,
10987,
15340,
24039,
7342,
5180,
5340,
4958,
4825,
4783,
4592,
4720,
4561,
4422,
4315,
4116,
4119,
3956,
3905,
4581,
3745,
3653,
3669,
3472,
3304,
3295,
3124,
3162,
3433,
17357,
3910,
2643,
3265,
6141,
2943,
2290,
2307,
2482,
2761,
2204,
2010,
1902,
1900,
1903,
2406,
10536,
3249,
1679,
1508,
1395,
1423,
1321,
1368,
2423,
3509,
1942,
2715,
1359,
1085,
981,
910,
830,
898,
812,
939,
1127,
778,
785,
725,
626,
637,
559,
505,
446,
491,
419,
381,
384,
334,
337,
298,
263,
237,
214,
182,
170,
165,
143,
109,
79,
60,
54,
48,
24,
4,
3,
6,
5,
6,
3,
2,
1,
0,
2,
1,
1,
0,
5,
1,
2,
1,
2,
3,
2,
3,
1,
4,
0,
3,
0,
3,
0,
2,
0,
1,
0,
1,
0,
1,
0,
0,
0,
0,
1,
0,
1,
0,
0,
0,
0,
1,
0,
0,
0,
0,
0,
0,
0,
0,
0,
1,
0,
0,
0,
0,
0,
0,
0,
0,
1,
0,
0,
0,
0,
0,
0,
0,
0,
0,
0,
0,
0,
0,
0,
0,
0,
0,
0,
0,
0,
0,
0,
0,
0,
0,
0,
0,
0,
0,
0,
0,
0,
0,
0,
0,
0,
0,
0,
0,
0,
0,
0,
0,
0,
0,
0,
0,
0,
0,
0,
0,
0,
0,
0,
0,
0,
0,
0,
0,
0,
0,
0,
0,
0,
0,
0,
0,
0,
0,
0,
0,
0,
0,
0,
0,
0,
0,
0,
0,
0,
0,
0,
0,
0,
0,
0,
0,
0,
0,
0,
0,
0,
0,
0,
0,
0,
0,
0,
0,
0,
0,
0,
0,
0,
0,
0,
0,
0,
0,
0,
0,
0,
0,
0,
0,
0,
0,
0,
0,
0,
0,
#ENDOFDATA   :

File: MMM2 Manganotantalite[5][4].msa
#FORMAT      : EMSA/MAS Spectral Data File
#VERSION     : 1.0
#TITLE       : MMM2 Manganotantalite[5][all]
#DATE        : 28-SEP-2025
#TIME        : 22:56
#OWNER       : Unknown
#NPOINTS     : 4096
#NCOLUMNS    : 1
#XUNITS      : eV
#YUNITS      : counts
#DATATYPE    : Y
#XPERCHAN    : 9.99778
#OFFSET      : 1.69135
#BEAMKV      : 15
#SIGNALTYPE  : EDS
#ELEVANGLE   : 35
#AZIMANGLE   : 0
#LIVETIME    : 240.307
#REALTIME    : 259.757
#PROBECUR    : 1.2132
#TAUWIND     : 0
#TDEADLYR    : 0
#TACTLYR     : 0.045
#TALWIND     : 0.025
#CHOFFSET    : 0.0
#XLABEL      : Energy (eV)
#YLABEL      : Counts
#XPOSITION   : -22.41502
#YPOSITION   : -0.44975
#ZPOSITION   : 34.11879
#EDSDET      : SD
##SPECIMEN   : MMM2 Manganotantalite[5][all]
##DET_HASH   : 12273538-fd48-a23f-0a19-f1e6fa85caef
##CALIB_HASH : 6abaa72c-aa41-8738-0be9-f592914732f3
##WORKING    : 15.0 mm
##DET_NAME   : EDAX All
##DET_MODE   : MediumLE
#SPECTRUM    :
33,
1111,
19102,
8578,
35428,
10600,
7317,
8009,
8793,
11501,
11904,
10405,
123980,
29289,
10960,
15343,
24144,
7443,
5176,
5353,
4821,
4755,
4770,
4668,
4724,
4502,
4423,
4359,
4284,
4154,
3996,
3894,
4636,
3747,
3616,
3617,
3383,
3404,
3265,
3089,
2943,
3492,
17375,
3955,
2660,
3317,
6157,
3045,
2408,
2207,
2491,
2626,
2181,
1992,
2034,
1834,
1870,
2466,
10680,
3240,
1646,
1577,
1466,
1458,
1379,
1459,
2443,
3460,
1884,
2770,
1261,
1090,
963,
893,
907,
841,
869,
929,
1090,
820,
755,
722,
622,
638,
534,
519,
490,
479,
453,
405,
377,
385,
321,
290,
251,
225,
222,
198,
195,
146,
156,
121,
98,
77,
49,
37,
22,
5,
8,
1,
1,
3,
4,
2,
4,
0,
5,
2,
4,
1,
2,
2,
3,
2,
0,
2,
1,
1,
1,
1,
2,
4,
2,
0,
2,
1,
3,
0,
0,
1,
1,
3,
2,
0,
0,
1,
0,
0,
0,
0,
0,
0,
0,
1,
1,
0,
1,
1,
0,
0,
0,
0,
0,
0,
0,
0,
0,
0,
1,
0,
0,
0,
0,
0,
0,
0,
0,
0,
0,
0,
0,
0,
0,
0,
0,
0,
0,
0,
0,
0,
0,
0,
0,
0,
0,
0,
0,
0,
0,
0,
0,
0,
0,
0,
0,
0,
0,
0,
0,
0,
0,
0,
0,
0,
0,
0,
0,
0,
0,
0,
0,
0,
0,
0,
0,
0,
0,
0,
0,
0,
0,
0,
0,
0,
0,
0,
0,
0,
0,
0,
0,
0,
0,
0,
0,
0,
0,
0,
0,
0,
0,
0,
0,
0,
0,
0,
0,
0,
0,
0,
0,
0,
0,
0,
0,
0,
0,
0,
0,
0,
0,
0,
0,
0,
0,
0,
0,
0,
0,
0,
0,
0,
0,
0,
0,
0,
0,
0,
0,
0,
0,
0,
0,
0,
#ENDOFDATA   :

File: MMM2 Manganotantalite[6][4].msa
#FORMAT      : EMSA/MAS Spectral Data File
#VERSION     : 1.0
#TITLE       : MMM2 Manganotantalite[6][all]
#DATE        : 28-SEP-2025
#TIME        : 22:57
#OWNER       : Unknown
#NPOINTS     : 4096
#NCOLUMNS    : 1
#XUNITS      : eV
#YUNITS      : counts
#DATATYPE    : Y
#XPERCHAN    : 9.99778
#OFFSET      : 1.69135
#BEAMKV      : 15
#SIGNALTYPE  : EDS
#ELEVANGLE   : 35
#AZIMANGLE   : 0
#LIVETIME    : 240.221
#REALTIME    : 259.885
#PROBECUR    : 1.2132
#TAUWIND     : 0
#TDEADLYR    : 0
#TACTLYR     : 0.045
#TALWIND     : 0.025
#CHOFFSET    : 0.0
#XLABEL      : Energy (eV)
#YLABEL      : Counts
#XPOSITION   : -22.53371
#YPOSITION   : -0.35155
#ZPOSITION   : 34.11879
#EDSDET      : SD
##SPECIMEN   : MMM2 Manganotantalite[6][all]
##DET_HASH   : 12273538-fd48-a23f-0a19-f1e6fa85caef
##CALIB_HASH : 6abaa72c-aa41-8738-0be9-f592914732f3
##WORKING    : 15.0 mm
##DET_NAME   : EDAX All
##DET_MODE   : MediumLE
#SPECTRUM    :
21,
1082,
18975,
8548,
35517,
10435,
7437,
8095,
8828,
11753,
12066,
10568,
130785,
30292,
11026,
14023,
21835,
7012,
5193,
5463,
4956,
4791,
4792,
4725,
4805,
4745,
4490,
4510,
4348,
4092,
4057,
3945,
4563,
3942,
3604,
3531,
3530,
3561,
3310,
3220,
3085,
3492,
17345,
3848,
2653,
3335,
5838,
2972,
2333,
2368,
2440,
2730,
2130,
2055,
2120,
1893,
1879,
2380,
11141,
3395,
1708,
1642,
1507,
1456,
1432,
1389,
2608,
3620,
1973,
2940,
1338,
1047,
965,
957,
916,
886,
827,
972,
1209,
773,
778,
727,
640,
608,
565,
505,
475,
414,
423,
415,
394,
378,
318,
279,
264,
251,
232,
203,
179,
147,
115,
143,
105,
85,
62,
32,
33,
11,
9,
6,
4,
1,
3,
6,
1,
4,
2,
4,
1,
0,
1,
2,
1,
0,
2,
1,
1,
3,
2,
2,
1,
2,
0,
1,
1,
1,
2,
0,
2,
0,
1,
1,
1,
0,
1,
0,
0,
0,
0,
0,
1,
0,
0,
1,
0,
0,
0,
2,
1,
1,
0,
0,
1,
1,
0,
0,
0,
0,
0,
0,
0,
1,
0,
0,
0,
0,
0,
0,
1,
0,
0,
0,
0,
0,
0,
0,
0,
0,
0,
0,
0,
0,
0,
0,
0,
0,
0,
1,
0,
0,
0,
0,
0,
0,
0,
0,
0,
0,
0,
0,
0,
0,
0,
0,
0,
0,
0,
0,
0,
0,
0,
0,
0,
0,
0,
0,
0,
0,
0,
0,
0,
0,
0,
0,
0,
0,
0,
0,
0,
0,
0,
0,
0,
0,
0,
0,
0,
0,
0,
0,
0,
0,
0,
0,
0,
0,
0,
0,
0,
0,
0,
0,
0,
0,
0,
0,
0,
0,
0,
0,
0,
0,
0,
0,
0,
0,
0,
0,
0,
0,
0,
0,
0,
0,
0,
0,
0,
0,
0,
0,
0,
0,
0,
0,
#ENDOFDATA   :

File: MMM2 Manganotantalite[7][4].msa
#FORMAT      : EMSA/MAS Spectral Data File
#VERSION     : 1.0
#TITLE       : MMM2 Manganotantalite[7][all]
#DATE        : 28-SEP-2025
#TIME        : 22:58
#OWNER       : Unknown
#NPOINTS     : 4096
#NCOLUMNS    : 1
#XUNITS      : eV
#YUNITS      : counts
#DATATYPE    : Y
#XPERCHAN    : 9.99778
#OFFSET      : 1.69135
#BEAMKV      : 15
#SIGNALTYPE  : EDS
#ELEVANGLE   : 35
#AZIMANGLE   : 0
#LIVETIME    : 240.232
#REALTIME    : 259.888
#PROBECUR    : 1.2132
#TAUWIND     : 0
#TDEADLYR    : 0
#TACTLYR     : 0.045
#TALWIND     : 0.025
#CHOFFSET    : 0.0
#XLABEL      : Energy (eV)
#YLABEL      : Counts
#XPOSITION   : -22.51877
#YPOSITION   : -0.35118
#ZPOSITION   : 34.11879
#EDSDET      : SD
##SPECIMEN   : MMM2 Manganotantalite[7][all]
##DET_HASH   : 12273538-fd48-a23f-0a19-f1e6fa85caef
##CALIB_HASH : 6abaa72c-aa41-8738-0be9-f592914732f3
##WORKING    : 15.0 mm
##DET_NAME   : EDAX All
##DET_MODE   : MediumLE
#SPECTRUM    :
23,
1129,
19042,
8606,
35630,
10419,
7290,
8117,
8881,
11690,
12054,
10492,
130140,
29969,
10915,
14290,
22185,
7071,
5163,
5342,
4816,
4730,
4843,
4894,
4607,
4712,
4508,
4396,
4414,
4177,
4199,
3988,
4527,
3881,
3707,
3695,
3515,
3482,
3219,
3134,
3149,
3414,
17766,
3943,
2780,
3305,
5871,
2953,
2325,
2265,
2446,
2639,
2139,
1978,
2083,
2021,
1892,
2365,
11223,
3487,
1668,
1593,
1442,
1457,
1384,
1359,
2473,
3487,
1938,
2775,
1355,
1089,
1017,
971,
897,
882,
805,
967,
1154,
747,
822,
688,
649,
604,
558,
505,
491,
483,
447,
396,
361,
398,
353,
299,
285,
249,
235,
194,
207,
156,
130,
124,
85,
73,
56,
48,
25,
12,
6,
2,
4,
2,
1,
1,
2,
3,
2,
3,
3,
4,
1,
1,
2,
1,
2,
2,
0,
1,
1,
1,
1,
0,
0,
1,
0,
1,
1,
1,
1,
1,
2,
0,
2,
2,
0,
0,
0,
0,
0,
0,
0,
0,
0,
1,
0,
2,
0,
0,
0,
1,
0,
0,
0,
0,
0,
0,
0,
0,
0,
0,
0,
0,
0,
0,
0,
0,
0,
0,
0,
0,
0,
0,
0,
0,
1,
0,
0,
0,
0,
0,
0,
0,
0,
0,
0,
0,
0,
0,
0,
0,
0,
0,
0,
0,
0,
0,
0,
0,
0,
0,
0,
0,
0,
0,
0,
0,
0,
0,
0,
0,
0,
0,
0,
0,
0,
0,
0,
0,
0,
0,
0,
0,
0,
0,
0,
0,
0,
0,
0,
0,
0,
0,
0,
0,
0,
0,
0,
0,
0,
0,
0,
0,
0,
0,
0,
0,
0,
0,
0,
0,
0,
0,
0,
0,
0,
0,
0,
0,
0,
0,
0,
0,
0,
0,
0,
0,
0,
0,
0,
0,
0,
0,
0,
0,
0,
0,
0,
0,
0,
0,
0,
0,
0,
0,
#ENDOFDATA   :

File: MMM2 MgAl2O4[0][4].msa
#FORMAT      : EMSA/MAS Spectral Data File
#VERSION     : 1.0
#TITLE       : MMM2 MgAl2O4[0][all]
#DATE        : 28-SEP-2025
#TIME        : 21:17
#OWNER       : Unknown
#NPOINTS     : 4096
#NCOLUMNS    : 1
#XUNITS      : eV
#YUNITS      : counts
#DATATYPE    : Y
#XPERCHAN    : 9.99778
#OFFSET      : 1.69135
#BEAMKV      : 15
#SIGNALTYPE  : EDS
#ELEVANGLE   : 35
#AZIMANGLE   : 0
#LIVETIME    : 240.474
#REALTIME    : 258.984
#PROBECUR    : 1.21217
#TAUWIND     : 0
#TDEADLYR    : 0
#TACTLYR     : 0.045
#TALWIND     : 0.025
#CHOFFSET    : 0.0
#XLABEL      : Energy (eV)
#YLABEL      : Counts
#XPOSITION   : -21.70278
#YPOSITION   : -2.76488
#ZPOSITION   : 34.11879
#EDSDET      : SD
##SPECIMEN   : MMM2 MgAl2O4[0][all]
##D2STDCMP   : MgAl2O4,(O:44.9839),(Mg:17.0844),(Al:37.9316)
##DET_HASH   : 12273538-fd48-a23f-0a19-f1e6fa85caef
##CALIB_HASH : 6abaa72c-aa41-8738-0be9-f592914732f3
##WORKING    : 15.0 mm
##DET_NAME   : EDAX All
##DET_MODE   : MediumLE
#SPECTRUM    :
25,
216,
11152,
10501,
95296,
2982,
3966,
4888,
6577,
160538,
21496,
96118,
2690,
2889,
3022,
2394,
2308,
2261,
2381,
2207,
2265,
2281,
1937,
1760,
1691,
1596,
1501,
1371,
1417,
1400,
1263,
1218,
1184,
1103,
1133,
1049,
1036,
943,
853,
899,
795,
859,
792,
721,
683,
686,
726,
635,
554,
557,
530,
523,
470,
465,
466,
413,
418,
389,
403,
355,
357,
357,
340,
279,
326,
305,
235,
259,
241,
235,
227,
213,
190,
211,
197,
170,
200,
140,
158,
146,
118,
120,
102,
115,
83,
96,
97,
75,
80,
91,
71,
51,
50,
47,
49,
32,
22,
29,
21,
23,
8,
23,
9,
8,
7,
10,
1,
1,
0,
1,
0,
0,
0,
0,
0,
0,
0,
0,
0,
0,
0,
0,
0,
0,
0,
0,
0,
0,
0,
0,
0,
0,
0,
0,
0,
0,
0,
0,
0,
0,
0,
0,
0,
1,
0,
0,
0,
0,
0,
0,
0,
0,
0,
0,
0,
0,
0,
0,
0,
0,
0,
0,
0,
0,
0,
0,
0,
0,
0,
0,
0,
0,
0,
0,
0,
0,
0,
0,
0,
0,
0,
0,
0,
0,
0,
0,
0,
0,
0,
0,
0,
0,
0,
0,
0,
0,
0,
0,
0,
0,
0,
0,
0,
0,
0,
0,
0,
0,
0,
0,
0,
0,
0,
0,
0,
0,
0,
0,
0,
0,
0,
0,
0,
0,
0,
0,
0,
0,
0,
0,
0,
0,
0,
0,
0,
0,
0,
0,
0,
0,
0,
0,
0,
0,
0,
0,
0,
0,
0,
0,
0,
0,
0,
0,
0,
0,
0,
0,
0,
0,
0,
0,
0,
0,
0,
0,
0,
0,
0,
0,
0,
0,
0,
0,
0,
0,
0,
0,
0,
0,
0,
0,
0,
0,
0,
0,
0,
0,
0,
0,
0,
0,
0,
0,
#ENDOFDATA   :