Folder: spex_quant/N132962/Quantification/15 keV/Mengason MM2 (part 7)

File: MMM2 Quartz[0][4].msa
#FORMAT      : EMSA/MAS Spectral Data File
#VERSION     : 1.0
#TITLE       : MMM2 Quartz[0][all]
#DATE        : 28-SEP-2025
#TIME        : 22:29
#OWNER       : Unknown
#NPOINTS     : 4096
#NCOLUMNS    : 1
#XUNITS      : eV
#YUNITS      : counts
#DATATYPE    : Y
#XPERCHAN    : 9.99778
#OFFSET      : 1.69135
#BEAMKV      : 15
#SIGNALTYPE  : EDS
#ELEVANGLE   : 35
#AZIMANGLE   : 0
#LIVETIME    : 240.268
#REALTIME    : 258.47
#PROBECUR    : 1.21261
#TAUWIND     : 0
#TDEADLYR    : 0
#TACTLYR     : 0.045
#TALWIND     : 0.025
#CHOFFSET    : 0.0
#XLABEL      : Energy (eV)
#YLABEL      : Counts
#XPOSITION   : -14.5289
#YPOSITION   : 0.43049
#ZPOSITION   : 34.11879
#EDSDET      : SD
##SPECIMEN   : MMM2 Quartz[0][all]
##D2STDCMP   : Quartz,(O:53.2565),(Si:46.7435),2.65
##DET_HASH   : 12273538-fd48-a23f-0a19-f1e6fa85caef
##CALIB_HASH : 6abaa72c-aa41-8738-0be9-f592914732f3
##WORKING    : 15.0 mm
##DET_NAME   : EDAX All
##DET_MODE   : MediumLE
#SPECTRUM    :
32,
231,
11450,
10060,
92942,
2687,
3414,
4170,
4432,
4589,
5107,
6133,
117233,
52098,
2363,
2223,
3713,
2112,
2033,
2082,
1970,
1901,
1828,
1708,
1672,
2478,
1599,
1438,
1456,
1269,
1273,
1323,
1253,
1079,
1118,
1025,
976,
955,
933,
847,
802,
844,
721,
788,
711,
727,
676,
672,
596,
568,
555,
505,
526,
524,
459,
449,
411,
411,
407,
393,
360,
336,
310,
331,
297,
291,
276,
242,
252,
223,
229,
240,
209,
194,
153,
179,
154,
151,
167,
130,
117,
120,
144,
94,
115,
83,
104,
95,
77,
59,
58,
56,
46,
48,
39,
50,
28,
32,
26,
26,
15,
13,
18,
16,
11,
10,
5,
2,
0,
0,
0,
0,
0,
1,
0,
0,
0,
0,
0,
0,
0,
0,
1,
0,
0,
0,
0,
0,
0,
0,
0,
0,
0,
0,
0,
0,
0,
0,
1,
0,
0,
0,
0,
0,
0,
0,
0,
0,
0,
0,
0,
0,
0,
0,
0,
0,
0,
0,
0,
0,
0,
0,
0,
0,
0,
0,
0,
0,
0,
0,
0,
0,
0,
0,
0,
0,
0,
0,
0,
0,
0,
0,
0,
0,
0,
0,
0,
0,
0,
0,
0,
0,
0,
0,
0,
0,
0,
0,
0,
0,
0,
0,
0,
0,
0,
0,
0,
0,
0,
0,
0,
0,
0,
0,
0,
0,
0,
0,
0,
0,
0,
0,
0,
0,
0,
0,
0,
0,
0,
0,
0,
0,
0,
0,
0,
0,
0,
0,
0,
0,
0,
0,
0,
0,
0,
0,
0,
0,
0,
0,
0,
0,
0,
0,
0,
0,
0,
0,
0,
0,
0,
0,
0,
0,
0,
0,
0,
0,
0,
0,
0,
0,
0,
0,
0,
0,
0,
0,
0,
0,
0,
0,
0,
0,
0,
0,
0,
0,
0,
0,
0,
0,
0,
0,
#ENDOFDATA   :

File: MMM2 Quartz[5][4].msa
#FORMAT      : EMSA/MAS Spectral Data File
#VERSION     : 1.0
#TITLE       : MMM2 Quartz[5][all]
#DATE        : 28-SEP-2025
#TIME        : 22:35
#OWNER       : Unknown
#NPOINTS     : 4096
#NCOLUMNS    : 1
#XUNITS      : eV
#YUNITS      : counts
#DATATYPE    : Y
#XPERCHAN    : 9.99778
#OFFSET      : 1.69135
#BEAMKV      : 15
#SIGNALTYPE  : EDS
#ELEVANGLE   : 35
#AZIMANGLE   : 0
#LIVETIME    : 240.265
#REALTIME    : 258.4776
#PROBECUR    : 1.21261
#TAUWIND     : 0
#TDEADLYR    : 0
#TACTLYR     : 0.045
#TALWIND     : 0.025
#CHOFFSET    : 0.0
#XLABEL      : Energy (eV)
#YLABEL      : Counts
#XPOSITION   : -14.55142
#YPOSITION   : 0.49586
#ZPOSITION   : 34.11879
#EDSDET      : SD
##SPECIMEN   : MMM2 Quartz[5][all]
##D2STDCMP   : Quartz,(O:53.2565),(Si:46.7435),2.65
##DET_HASH   : 12273538-fd48-a23f-0a19-f1e6fa85caef
##CALIB_HASH : 6abaa72c-aa41-8738-0be9-f592914732f3
##WORKING    : 15.0 mm
##DET_NAME   : EDAX All
##DET_MODE   : MediumLE
#SPECTRUM    :
29,
246,
11362,
10223,
93733,
2669,
3427,
4119,
4420,
4568,
5069,
6119,
117033,
52361,
2285,
2199,
3790,
2197,
2084,
1984,
1992,
1875,
1854,
1709,
1733,
2537,
1555,
1473,
1390,
1331,
1375,
1212,
1142,
1076,
1090,
1050,
1026,
996,
969,
914,
834,
786,
783,
707,
672,
720,
669,
629,
631,
577,
554,
552,
540,
439,
482,
416,
434,
410,
398,
377,
361,
351,
352,
301,
307,
274,
282,
229,
261,
259,
238,
244,
206,
190,
206,
165,
175,
160,
172,
136,
111,
128,
124,
94,
103,
98,
83,
68,
81,
64,
59,
55,
55,
60,
48,
45,
29,
34,
25,
19,
23,
16,
15,
5,
8,
6,
2,
1,
0,
0,
1,
0,
0,
0,
0,
0,
0,
0,
0,
0,
0,
0,
0,
0,
0,
0,
0,
0,
0,
0,
0,
0,
0,
0,
0,
0,
0,
0,
0,
0,
0,
0,
0,
0,
0,
0,
0,
0,
0,
0,
0,
0,
0,
0,
0,
0,
0,
0,
0,
0,
0,
0,
0,
0,
0,
0,
0,
0,
0,
0,
0,
0,
0,
0,
0,
0,
0,
0,
0,
0,
0,
0,
0,
0,
0,
0,
0,
0,
0,
0,
0,
0,
0,
0,
0,
0,
0,
0,
0,
0,
0,
0,
0,
0,
0,
0,
0,
0,
0,
0,
0,
0,
0,
0,
0,
0,
0,
0,
0,
0,
0,
0,
0,
0,
0,
0,
0,
0,
0,
0,
0,
0,
0,
0,
0,
0,
0,
0,
0,
0,
0,
0,
0,
0,
0,
0,
0,
0,
0,
0,
0,
0,
0,
0,
0,
0,
0,
0,
0,
0,
0,
0,
0,
0,
0,
0,
0,
0,
0,
0,
0,
0,
0,
0,
0,
0,
0,
0,
0,
0,
0,
0,
0,
0,
0,
0,
0,
0,
0,
0,
0,
0,
0,
0,
#ENDOFDATA   :

File: MMM2 Quartz[6][4].msa
#FORMAT      : EMSA/MAS Spectral Data File
#VERSION     : 1.0
#TITLE       : MMM2 Quartz[6][all]
#DATE        : 28-SEP-2025
#TIME        : 22:36
#OWNER       : Unknown
#NPOINTS     : 4096
#NCOLUMNS    : 1
#XUNITS      : eV
#YUNITS      : counts
#DATATYPE    : Y
#XPERCHAN    : 9.99778
#OFFSET      : 1.69135
#BEAMKV      : 15
#SIGNALTYPE  : EDS
#ELEVANGLE   : 35
#AZIMANGLE   : 0
#LIVETIME    : 240.266
#REALTIME    : 258.479
#PROBECUR    : 1.21261
#TAUWIND     : 0
#TDEADLYR    : 0
#TACTLYR     : 0.045
#TALWIND     : 0.025
#CHOFFSET    : 0.0
#XLABEL      : Energy (eV)
#YLABEL      : Counts
#XPOSITION   : -14.54062
#YPOSITION   : 0.48223
#ZPOSITION   : 34.11879
#EDSDET      : SD
##SPECIMEN   : MMM2 Quartz[6][all]
##D2STDCMP   : Quartz,(O:53.2565),(Si:46.7435),2.65
##DET_HASH   : 12273538-fd48-a23f-0a19-f1e6fa85caef
##CALIB_HASH : 6abaa72c-aa41-8738-0be9-f592914732f3
##WORKING    : 15.0 mm
##DET_NAME   : EDAX All
##DET_MODE   : MediumLE
#SPECTRUM    :
26,
215,
11747,
10107,
92896,
2676,
3404,
4157,
4349,
4575,
5096,
6222,
116981,
52023,
2329,
2277,
3777,
2195,
2085,
2050,
1973,
2002,
1888,
1631,
1756,
2513,
1498,
1480,
1389,
1386,
1335,
1319,
1203,
1080,
1076,
1041,
1027,
945,
924,
918,
855,
828,
842,
747,
688,
641,
658,
606,
654,
606,
539,
529,
502,
500,
471,
445,
448,
398,
406,
377,
365,
328,
337,
319,
308,
288,
290,
235,
254,
234,
240,
220,
194,
195,
190,
163,
179,
145,
145,
145,
135,
146,
108,
119,
90,
97,
91,
75,
75,
74,
54,
56,
48,
53,
46,
42,
31,
26,
30,
19,
19,
16,
8,
11,
8,
4,
5,
0,
0,
0,
0,
0,
0,
0,
0,
0,
0,
0,
0,
0,
0,
0,
0,
0,
0,
0,
0,
0,
0,
0,
1,
0,
0,
0,
0,
0,
0,
0,
0,
0,
0,
0,
0,
0,
0,
0,
0,
0,
0,
0,
0,
0,
0,
0,
0,
0,
0,
0,
0,
0,
0,
0,
0,
0,
0,
0,
0,
0,
0,
0,
0,
0,
0,
0,
0,
0,
0,
0,
0,
0,
0,
0,
0,
0,
0,
0,
0,
0,
0,
0,
0,
0,
0,
0,
0,
0,
0,
0,
0,
0,
0,
0,
0,
0,
0,
0,
0,
0,
0,
0,
0,
0,
0,
0,
0,
0,
0,
0,
0,
0,
0,
0,
0,
0,
0,
0,
0,
0,
0,
0,
0,
0,
0,
0,
0,
0,
0,
0,
0,
0,
0,
0,
0,
0,
0,
0,
0,
0,
0,
0,
0,
0,
0,
0,
0,
0,
0,
0,
0,
0,
0,
0,
0,
0,
0,
0,
0,
0,
0,
0,
0,
0,
0,
0,
0,
0,
0,
0,
0,
0,
0,
0,
0,
0,
0,
0,
0,
0,
0,
0,
0,
0,
0,
0,
#ENDOFDATA   :

File: MMM2 Quartz[7][4].msa
#FORMAT      : EMSA/MAS Spectral Data File
#VERSION     : 1.0
#TITLE       : MMM2 Quartz[7][all]
#DATE        : 28-SEP-2025
#TIME        : 22:37
#OWNER       : Unknown
#NPOINTS     : 4096
#NCOLUMNS    : 1
#XUNITS      : eV
#YUNITS      : counts
#DATATYPE    : Y
#XPERCHAN    : 9.99778
#OFFSET      : 1.69135
#BEAMKV      : 15
#SIGNALTYPE  : EDS
#ELEVANGLE   : 35
#AZIMANGLE   : 0
#LIVETIME    : 240.263
#REALTIME    : 258.47
#PROBECUR    : 1.21261
#TAUWIND     : 0
#TDEADLYR    : 0
#TACTLYR     : 0.045
#TALWIND     : 0.025
#CHOFFSET    : 0.0
#XLABEL      : Energy (eV)
#YLABEL      : Counts
#XPOSITION   : -14.5256
#YPOSITION   : 0.46952
#ZPOSITION   : 34.11879
#EDSDET      : SD
##SPECIMEN   : MMM2 Quartz[7][all]
##D2STDCMP   : Quartz,(O:53.2565),(Si:46.7435),2.65
##DET_HASH   : 12273538-fd48-a23f-0a19-f1e6fa85caef
##CALIB_HASH : 6abaa72c-aa41-8738-0be9-f592914732f3
##WORKING    : 15.0 mm
##DET_NAME   : EDAX All
##DET_MODE   : MediumLE
#SPECTRUM    :
29,
231,
11703,
10043,
92673,
2598,
3289,
4283,
4452,
4552,
5036,
6212,
115588,
51657,
2269,
2178,
3747,
2216,
2141,
1996,
1951,
1899,
1854,
1724,
1732,
2560,
1555,
1483,
1413,
1397,
1282,
1207,
1180,
1107,
1045,
1101,
970,
996,
941,
869,
833,
862,
783,
757,
673,
663,
667,
589,
615,
563,
586,
490,
504,
476,
467,
471,
448,
385,
424,
428,
369,
310,
319,
315,
308,
282,
304,
258,
224,
236,
266,
221,
190,
213,
204,
165,
159,
143,
168,
147,
121,
132,
114,
110,
93,
94,
91,
68,
100,
50,
59,
56,
53,
42,
46,
24,
42,
30,
36,
27,
23,
21,
18,
15,
4,
9,
0,
2,
0,
0,
0,
1,
0,
0,
0,
0,
0,
0,
0,
0,
0,
0,
0,
0,
0,
0,
0,
0,
0,
0,
0,
0,
0,
0,
0,
0,
0,
0,
0,
0,
0,
0,
0,
0,
0,
0,
0,
0,
0,
0,
0,
0,
0,
0,
0,
0,
0,
0,
0,
0,
0,
0,
0,
0,
0,
0,
0,
0,
0,
0,
0,
0,
0,
0,
0,
0,
0,
0,
0,
0,
0,
0,
0,
0,
0,
0,
0,
0,
0,
0,
0,
0,
0,
0,
0,
0,
0,
0,
0,
0,
0,
0,
0,
0,
0,
0,
0,
0,
0,
0,
0,
0,
0,
0,
0,
0,
0,
0,
0,
0,
0,
0,
0,
0,
0,
0,
0,
0,
0,
0,
0,
0,
0,
0,
0,
0,
0,
0,
0,
0,
0,
0,
0,
0,
0,
0,
0,
0,
0,
0,
0,
0,
0,
0,
0,
0,
0,
0,
0,
0,
0,
0,
0,
0,
0,
0,
0,
0,
0,
0,
0,
0,
0,
0,
0,
0,
0,
0,
0,
0,
0,
0,
0,
0,
0,
0,
0,
0,
0,
0,
0,
0,
0,
0,
#ENDOFDATA   :

File: MMM2 Rhodonite[0][4].msa
#FORMAT      : EMSA/MAS Spectral Data File
#VERSION     : 1.0
#TITLE       : MMM2 Rhodonite[0][all]
#DATE        : 28-SEP-2025
#TIME        : 23:21
#OWNER       : Unknown
#NPOINTS     : 4096
#NCOLUMNS    : 1
#XUNITS      : eV
#YUNITS      : counts
#DATATYPE    : Y
#XPERCHAN    : 9.99778
#OFFSET      : 1.69135
#BEAMKV      : 15
#SIGNALTYPE  : EDS
#ELEVANGLE   : 35
#AZIMANGLE   : 0
#LIVETIME    : 240.296
#REALTIME    : 256.166
#PROBECUR    : 1.21079
#TAUWIND     : 0
#TDEADLYR    : 0
#TACTLYR     : 0.045
#TALWIND     : 0.025
#CHOFFSET    : 0.0
#XLABEL      : Energy (eV)
#YLABEL      : Counts
#XPOSITION   : -16.63784
#YPOSITION   : 1.79236
#ZPOSITION   : 34.11879
#EDSDET      : SD
##SPECIMEN   : MMM2 Rhodonite[0][all]
##DET_HASH   : 12273538-fd48-a23f-0a19-f1e6fa85caef
##CALIB_HASH : 6abaa72c-aa41-8738-0be9-f592914732f3
##WORKING    : 15.0 mm
##DET_NAME   : EDAX All
##DET_MODE   : MediumLE
#SPECTRUM    :
24,
291,
14691,
10627,
85937,
9009,
3193,
3877,
4271,
12427,
5208,
5641,
52739,
25310,
3559,
3377,
3787,
3291,
3097,
2974,
2893,
2766,
2653,
2477,
2392,
2570,
8194,
3966,
2341,
2909,
2040,
1780,
1773,
1606,
1667,
1595,
1548,
1424,
1351,
1347,
1304,
2385,
40362,
4326,
1197,
2050,
7439,
2541,
888,
836,
1127,
924,
727,
735,
737,
758,
633,
614,
596,
571,
606,
535,
506,
470,
481,
450,
416,
408,
405,
372,
391,
347,
308,
338,
302,
259,
269,
258,
241,
219,
207,
188,
184,
191,
167,
159,
158,
128,
116,
123,
123,
88,
79,
74,
63,
73,
64,
70,
49,
42,
34,
27,
26,
13,
18,
3,
7,
0,
0,
0,
0,
2,
0,
1,
0,
0,
0,
1,
0,
0,
1,
0,
0,
0,
0,
0,
0,
0,
0,
1,
0,
1,
0,
0,
0,
0,
0,
1,
0,
0,
0,
0,
0,
0,
1,
0,
0,
1,
0,
0,
0,
0,
0,
0,
0,
0,
0,
0,
0,
0,
0,
0,
0,
0,
0,
0,
0,
0,
0,
0,
0,
0,
0,
0,
0,
0,
0,
0,
0,
0,
0,
0,
0,
0,
0,
0,
0,
0,
0,
0,
0,
0,
0,
0,
0,
0,
0,
0,
0,
0,
0,
0,
0,
0,
0,
0,
0,
0,
0,
0,
0,
0,
0,
0,
0,
0,
0,
0,
0,
0,
0,
0,
0,
0,
0,
0,
0,
0,
0,
0,
0,
0,
0,
0,
0,
0,
0,
0,
0,
0,
0,
0,
0,
0,
0,
0,
0,
0,
0,
0,
0,
0,
0,
0,
0,
0,
0,
0,
0,
0,
0,
0,
0,
0,
0,
0,
0,
0,
0,
0,
0,
0,
0,
0,
0,
0,
0,
0,
0,
0,
0,
0,
0,
0,
0,
0,
0,
0,
0,
0,
0,
0,
0,
0,
#ENDOFDATA   :

File: MMM2 Rhodonite[1][4].msa
#FORMAT      : EMSA/MAS Spectral Data File
#VERSION     : 1.0
#TITLE       : MMM2 Rhodonite[1][all]
#DATE        : 28-SEP-2025
#TIME        : 23:23
#OWNER       : Unknown
#NPOINTS     : 4096
#NCOLUMNS    : 1
#XUNITS      : eV
#YUNITS      : counts
#DATATYPE    : Y
#XPERCHAN    : 9.99778
#OFFSET      : 1.69135
#BEAMKV      : 15
#SIGNALTYPE  : EDS
#ELEVANGLE   : 35
#AZIMANGLE   : 0
#LIVETIME    : 240.254
#REALTIME    : 256.109
#PROBECUR    : 1.21079
#TAUWIND     : 0
#TDEADLYR    : 0
#TACTLYR     : 0.045
#TALWIND     : 0.025
#CHOFFSET    : 0.0
#XLABEL      : Energy (eV)
#YLABEL      : Counts
#XPOSITION   : -16.7332
#YPOSITION   : 1.80929
#ZPOSITION   : 34.11879
#EDSDET      : SD
##SPECIMEN   : MMM2 Rhodonite[1][all]
##DET_HASH   : 12273538-fd48-a23f-0a19-f1e6fa85caef
##CALIB_HASH : 6abaa72c-aa41-8738-0be9-f592914732f3
##WORKING    : 15.0 mm
##DET_NAME   : EDAX All
##DET_MODE   : MediumLE
#SPECTRUM    :
16,
280,
14794,
10493,
85912,
8682,
3212,
3824,
4471,
12254,
5016,
5689,
52250,
25552,
3578,
3363,
3917,
3360,
3113,
3076,
2779,
2748,
2709,
2540,
2505,
2526,
8162,
4029,
2208,
2892,
1987,
1808,
1706,
1623,
1529,
1560,
1428,
1425,
1352,
1412,
1301,
2327,
40197,
4319,
1069,
2046,
7384,
2371,
875,
822,
1049,
903,
751,
728,
679,
673,
613,
650,
621,
554,
549,
539,
550,
495,
442,
414,
399,
419,
441,
371,
366,
318,
347,
270,
286,
295,
241,
261,
238,
218,
213,
218,
178,
165,
177,
148,
146,
126,
128,
121,
103,
78,
95,
81,
81,
65,
58,
41,
51,
48,
27,
33,
24,
16,
12,
9,
4,
1,
1,
0,
0,
1,
0,
0,
0,
0,
2,
0,
0,
2,
1,
0,
0,
0,
0,
0,
0,
2,
0,
0,
0,
0,
0,
0,
0,
0,
0,
0,
0,
0,
0,
0,
0,
0,
1,
0,
0,
0,
0,
0,
0,
0,
0,
0,
0,
0,
0,
0,
0,
0,
0,
0,
0,
0,
0,
0,
0,
0,
0,
0,
0,
0,
0,
0,
0,
0,
0,
0,
0,
0,
0,
0,
0,
0,
0,
0,
0,
0,
0,
0,
0,
0,
0,
0,
0,
0,
0,
0,
0,
0,
0,
0,
0,
0,
0,
0,
0,
0,
0,
0,
0,
0,
0,
0,
0,
0,
0,
0,
0,
0,
0,
0,
0,
0,
0,
0,
0,
0,
0,
0,
0,
0,
0,
0,
0,
0,
0,
0,
0,
0,
0,
0,
0,
0,
0,
0,
0,
0,
0,
0,
0,
0,
0,
0,
0,
0,
0,
0,
0,
0,
0,
0,
0,
0,
0,
0,
0,
0,
0,
0,
0,
0,
0,
0,
0,
0,
0,
0,
0,
0,
0,
0,
0,
0,
0,
0,
1,
0,
0,
0,
0,
0,
0,
0,
#ENDOFDATA   :

File: MMM2 Rhodonite[2][4].msa
#FORMAT      : EMSA/MAS Spectral Data File
#VERSION     : 1.0
#TITLE       : MMM2 Rhodonite[2][all]
#DATE        : 28-SEP-2025
#TIME        : 23:24
#OWNER       : Unknown
#NPOINTS     : 4096
#NCOLUMNS    : 1
#XUNITS      : eV
#YUNITS      : counts
#DATATYPE    : Y
#XPERCHAN    : 9.99778
#OFFSET      : 1.69135
#BEAMKV      : 15
#SIGNALTYPE  : EDS
#ELEVANGLE   : 35
#AZIMANGLE   : 0
#LIVETIME    : 240.191
#REALTIME    : 256.042
#PROBECUR    : 1.21079
#TAUWIND     : 0
#TDEADLYR    : 0
#TACTLYR     : 0.045
#TALWIND     : 0.025
#CHOFFSET    : 0.0
#XLABEL      : Energy (eV)
#YLABEL      : Counts
#XPOSITION   : -16.66613
#YPOSITION   : 1.86544
#ZPOSITION   : 34.11879
#EDSDET      : SD
##SPECIMEN   : MMM2 Rhodonite[2][all]
##DET_HASH   : 12273538-fd48-a23f-0a19-f1e6fa85caef
##CALIB_HASH : 6abaa72c-aa41-8738-0be9-f592914732f3
##WORKING    : 15.0 mm
##DET_NAME   : EDAX All
##DET_MODE   : MediumLE
#SPECTRUM    :
18,
288,
14600,
10530,
85636,
8659,
3266,
3924,
4414,
12384,
5020,
5573,
52524,
25477,
3464,
3313,
4026,
3364,
3162,
3032,
2890,
2797,
2674,
2543,
2473,
2532,
8242,
4129,
2349,
2845,
1876,
1765,
1717,
1650,
1579,
1559,
1462,
1396,
1280,
1342,
1286,
2311,
40136,
4311,
1159,
2049,
7463,
2434,
888,
838,
1140,
933,
728,
726,
733,
681,
656,
620,
598,
560,
588,
510,
513,
482,
459,
436,
405,
414,
418,
390,
335,
343,
335,
323,
299,
274,
275,
273,
200,
222,
196,
206,
209,
183,
183,
155,
129,
155,
146,
103,
126,
113,
113,
70,
80,
74,
57,
41,
54,
41,
27,
32,
16,
17,
15,
11,
3,
1,
1,
1,
1,
0,
1,
0,
0,
0,
0,
0,
0,
0,
0,
0,
0,
0,
0,
0,
0,
0,
0,
0,
0,
1,
0,
0,
0,
0,
0,
0,
0,
1,
0,
0,
0,
0,
0,
0,
0,
0,
0,
0,
0,
0,
0,
0,
0,
0,
0,
0,
0,
0,
0,
0,
0,
0,
0,
0,
0,
0,
0,
0,
0,
0,
0,
0,
0,
0,
0,
0,
0,
0,
0,
0,
0,
0,
0,
0,
0,
0,
0,
0,
0,
0,
0,
0,
0,
0,
0,
0,
0,
0,
0,
0,
0,
0,
0,
0,
0,
0,
0,
0,
0,
0,
0,
0,
0,
0,
0,
0,
0,
0,
0,
0,
0,
0,
0,
0,
0,
0,
0,
0,
0,
0,
0,
0,
0,
0,
0,
0,
0,
0,
0,
0,
0,
0,
0,
0,
0,
0,
0,
0,
0,
0,
0,
0,
0,
0,
0,
0,
0,
0,
0,
0,
0,
0,
0,
0,
0,
0,
0,
0,
0,
0,
0,
0,
0,
0,
0,
0,
0,
0,
0,
0,
0,
0,
0,
0,
0,
0,
0,
0,
0,
0,
0,
0,
#ENDOFDATA   :

File: MMM2 Rhodonite[3][4].msa
#FORMAT      : EMSA/MAS Spectral Data File
#VERSION     : 1.0
#TITLE       : MMM2 Rhodonite[3][all]
#DATE        : 28-SEP-2025
#TIME        : 23:25
#OWNER       : Unknown
#NPOINTS     : 4096
#NCOLUMNS    : 1
#XUNITS      : eV
#YUNITS      : counts
#DATATYPE    : Y
#XPERCHAN    : 9.99778
#OFFSET      : 1.69135
#BEAMKV      : 15
#SIGNALTYPE  : EDS
#ELEVANGLE   : 35
#AZIMANGLE   : 0
#LIVETIME    : 240.241
#REALTIME    : 256.113
#PROBECUR    : 1.21079
#TAUWIND     : 0
#TDEADLYR    : 0
#TACTLYR     : 0.045
#TALWIND     : 0.025
#CHOFFSET    : 0.0
#XLABEL      : Energy (eV)
#YLABEL      : Counts
#XPOSITION   : -16.63213
#YPOSITION   : 1.80371
#ZPOSITION   : 34.11879
#EDSDET      : SD
##SPECIMEN   : MMM2 Rhodonite[3][all]
##DET_HASH   : 12273538-fd48-a23f-0a19-f1e6fa85caef
##CALIB_HASH : 6abaa72c-aa41-8738-0be9-f592914732f3
##WORKING    : 15.0 mm
##DET_NAME   : EDAX All
##DET_MODE   : MediumLE
#SPECTRUM    :
17,
300,
14834,
10583,
86048,
8729,
3189,
3866,
4494,
12358,
5024,
5725,
52373,
25248,
3586,
3305,
3863,
3322,
3067,
2943,
2800,
2856,
2657,
2567,
2446,
2614,
8356,
4068,
2269,
2824,
1963,
1751,
1676,
1669,
1603,
1570,
1452,
1402,
1325,
1293,
1285,
2234,
40435,
4191,
1157,
2008,
7568,
2335,
812,
844,
1085,
943,
731,
755,
728,
710,
693,
589,
600,
549,
548,
472,
510,
428,
442,
491,
449,
387,
396,
429,
394,
358,
306,
323,
288,
270,
265,
264,
252,
247,
212,
183,
173,
178,
182,
174,
127,
144,
128,
122,
102,
103,
84,
78,
69,
54,
45,
52,
48,
45,
24,
37,
21,
20,
15,
12,
5,
2,
0,
1,
0,
0,
1,
0,
1,
1,
0,
0,
0,
0,
1,
0,
0,
0,
0,
0,
1,
0,
0,
0,
0,
1,
0,
0,
0,
0,
0,
0,
2,
0,
0,
0,
0,
0,
0,
0,
0,
0,
0,
0,
0,
0,
0,
0,
0,
0,
0,
0,
0,
0,
0,
0,
0,
0,
0,
0,
0,
0,
0,
0,
0,
0,
0,
0,
0,
0,
0,
0,
0,
0,
0,
0,
0,
0,
0,
0,
0,
0,
0,
0,
0,
0,
0,
0,
0,
0,
0,
0,
0,
0,
0,
0,
0,
0,
0,
0,
0,
0,
0,
0,
0,
0,
0,
0,
0,
0,
0,
0,
0,
0,
0,
0,
0,
0,
0,
0,
0,
0,
0,
0,
0,
0,
0,
0,
0,
0,
0,
0,
0,
0,
0,
0,
0,
0,
0,
0,
0,
0,
0,
0,
0,
0,
0,
0,
0,
0,
0,
0,
0,
0,
0,
0,
0,
0,
0,
0,
0,
0,
0,
0,
0,
0,
0,
0,
0,
0,
0,
0,
0,
0,
0,
0,
0,
0,
0,
0,
0,
0,
0,
0,
0,
0,
0,
0,
#ENDOFDATA   :

File: MMM2 Rhodonite[4][4].msa
#FORMAT      : EMSA/MAS Spectral Data File
#VERSION     : 1.0
#TITLE       : MMM2 Rhodonite[4][all]
#DATE        : 28-SEP-2025
#TIME        : 23:26
#OWNER       : Unknown
#NPOINTS     : 4096
#NCOLUMNS    : 1
#XUNITS      : eV
#YUNITS      : counts
#DATATYPE    : Y
#XPERCHAN    : 9.99778
#OFFSET      : 1.69135
#BEAMKV      : 15
#SIGNALTYPE  : EDS
#ELEVANGLE   : 35
#AZIMANGLE   : 0
#LIVETIME    : 240.2351
#REALTIME    : 256.111
#PROBECUR    : 1.21079
#TAUWIND     : 0
#TDEADLYR    : 0
#TACTLYR     : 0.045
#TALWIND     : 0.025
#CHOFFSET    : 0.0
#XLABEL      : Energy (eV)
#YLABEL      : Counts
#XPOSITION   : -16.61824
#YPOSITION   : 1.82482
#ZPOSITION   : 34.11879
#EDSDET      : SD
##SPECIMEN   : MMM2 Rhodonite[4][all]
##DET_HASH   : 12273538-fd48-a23f-0a19-f1e6fa85caef
##CALIB_HASH : 6abaa72c-aa41-8738-0be9-f592914732f3
##WORKING    : 15.0 mm
##DET_NAME   : EDAX All
##DET_MODE   : MediumLE
#SPECTRUM    :
18,
283,
14809,
10696,
86194,
8743,
3308,
3971,
4430,
12300,
5116,
5479,
52328,
25571,
3578,
3267,
3993,
3266,
3097,
3008,
2945,
2764,
2631,
2647,
2444,
2642,
8219,
4070,
2192,
2939,
1947,
1806,
1704,
1691,
1646,
1495,
1490,
1349,
1393,
1370,
1275,
2307,
40055,
4434,
1103,
2028,
7709,
2339,
914,
859,
1200,
932,
762,
701,
731,
730,
607,
644,
560,
592,
572,
543,
503,
493,
467,
435,
427,
431,
371,
369,
370,
343,
338,
322,
316,
253,
287,
238,
238,
221,
192,
195,
198,
175,
161,
141,
135,
131,
126,
108,
89,
92,
91,
85,
67,
69,
46,
62,
43,
33,
37,
24,
28,
17,
15,
6,
5,
3,
1,
0,
0,
1,
0,
0,
1,
3,
0,
0,
1,
0,
0,
1,
1,
0,
0,
0,
0,
2,
0,
0,
0,
0,
0,
0,
0,
0,
0,
0,
0,
0,
0,
1,
0,
0,
0,
0,
0,
0,
0,
0,
0,
0,
0,
0,
0,
0,
0,
0,
0,
0,
0,
0,
0,
0,
0,
0,
0,
0,
0,
0,
0,
0,
0,
0,
0,
0,
0,
0,
0,
0,
1,
0,
0,
0,
0,
0,
0,
0,
0,
0,
0,
0,
0,
0,
0,
0,
0,
0,
0,
0,
0,
0,
0,
0,
0,
0,
0,
0,
0,
0,
0,
0,
0,
0,
0,
0,
0,
0,
0,
0,
0,
0,
0,
0,
0,
0,
0,
0,
0,
0,
0,
0,
0,
0,
0,
0,
0,
0,
0,
0,
0,
0,
0,
0,
0,
0,
0,
0,
0,
0,
0,
0,
0,
0,
0,
0,
0,
0,
0,
0,
0,
0,
0,
0,
0,
0,
0,
0,
0,
0,
0,
0,
0,
0,
0,
0,
0,
0,
0,
0,
0,
0,
0,
0,
0,
0,
0,
0,
0,
0,
0,
0,
0,
0,
#ENDOFDATA   :

File: MMM2 Rhodonite[5][4].msa
#FORMAT      : EMSA/MAS Spectral Data File
#VERSION     : 1.0
#TITLE       : MMM2 Rhodonite[5][all]
#DATE        : 28-SEP-2025
#TIME        : 23:27
#OWNER       : Unknown
#NPOINTS     : 4096
#NCOLUMNS    : 1
#XUNITS      : eV
#YUNITS      : counts
#DATATYPE    : Y
#XPERCHAN    : 9.99778
#OFFSET      : 1.69135
#BEAMKV      : 15
#SIGNALTYPE  : EDS
#ELEVANGLE   : 35
#AZIMANGLE   : 0
#LIVETIME    : 240.217
#REALTIME    : 256.066
#PROBECUR    : 1.21079
#TAUWIND     : 0
#TDEADLYR    : 0
#TACTLYR     : 0.045
#TALWIND     : 0.025
#CHOFFSET    : 0.0
#XLABEL      : Energy (eV)
#YLABEL      : Counts
#XPOSITION   : -16.69999
#YPOSITION   : 1.80557
#ZPOSITION   : 34.11879
#EDSDET      : SD
##SPECIMEN   : MMM2 Rhodonite[5][all]
##DET_HASH   : 12273538-fd48-a23f-0a19-f1e6fa85caef
##CALIB_HASH : 6abaa72c-aa41-8738-0be9-f592914732f3
##WORKING    : 15.0 mm
##DET_NAME   : EDAX All
##DET_MODE   : MediumLE
#SPECTRUM    :
24,
272,
14565,
10510,
85905,
8766,
3301,
3880,
4482,
12396,
5165,
5597,
52528,
25355,
3575,
3406,
3845,
3286,
3132,
2977,
2936,
2783,
2667,
2615,
2472,
2503,
8200,
4006,
2319,
2852,
2051,
1798,
1679,
1667,
1594,
1570,
1488,
1445,
1342,
1360,
1288,
2302,
40377,
4341,
1102,
1992,
7532,
2355,
859,
823,
1109,
918,
721,
772,
710,
701,
619,
639,
580,
584,
544,
589,
503,
472,
493,
445,
414,
415,
410,
396,
357,
347,
323,
314,
285,
287,
292,
244,
238,
258,
224,
206,
194,
174,
178,
169,
131,
115,
111,
134,
116,
94,
97,
84,
69,
74,
74,
64,
39,
37,
33,
25,
23,
13,
14,
8,
6,
1,
0,
0,
0,
1,
0,
0,
1,
0,
2,
1,
0,
1,
1,
0,
2,
1,
1,
0,
1,
0,
0,
0,
0,
0,
1,
0,
0,
1,
0,
0,
0,
0,
0,
0,
0,
0,
0,
0,
0,
0,
0,
0,
0,
0,
0,
0,
0,
0,
0,
0,
0,
0,
0,
0,
0,
0,
0,
0,
0,
0,
0,
0,
0,
0,
0,
0,
0,
0,
0,
0,
0,
0,
0,
0,
0,
0,
0,
0,
0,
0,
0,
0,
0,
0,
0,
0,
0,
0,
0,
0,
0,
0,
0,
0,
0,
0,
0,
0,
0,
0,
0,
0,
0,
0,
0,
0,
0,
0,
0,
0,
0,
0,
0,
0,
0,
0,
0,
0,
0,
0,
0,
0,
0,
0,
0,
0,
0,
0,
0,
0,
0,
0,
0,
0,
0,
0,
0,
0,
0,
0,
0,
0,
0,
0,
0,
0,
0,
0,
0,
0,
0,
0,
0,
0,
0,
0,
0,
0,
0,
0,
0,
0,
0,
0,
0,
0,
0,
0,
0,
0,
0,
0,
0,
0,
0,
0,
0,
0,
0,
0,
0,
0,
0,
0,
0,
0,
#ENDOFDATA   :

File: MMM2 Rhodonite[6][4].msa
#FORMAT      : EMSA/MAS Spectral Data File
#VERSION     : 1.0
#TITLE       : MMM2 Rhodonite[6][all]
#DATE        : 28-SEP-2025
#TIME        : 23:28
#OWNER       : Unknown
#NPOINTS     : 4096
#NCOLUMNS    : 1
#XUNITS      : eV
#YUNITS      : counts
#DATATYPE    : Y
#XPERCHAN    : 9.99778
#OFFSET      : 1.69135
#BEAMKV      : 15
#SIGNALTYPE  : EDS
#ELEVANGLE   : 35
#AZIMANGLE   : 0
#LIVETIME    : 240.289
#REALTIME    : 256.165
#PROBECUR    : 1.21079
#TAUWIND     : 0
#TDEADLYR    : 0
#TACTLYR     : 0.045
#TALWIND     : 0.025
#CHOFFSET    : 0.0
#XLABEL      : Energy (eV)
#YLABEL      : Counts
#XPOSITION   : -16.69494
#YPOSITION   : 1.75835
#ZPOSITION   : 34.11879
#EDSDET      : SD
##SPECIMEN   : MMM2 Rhodonite[6][all]
##DET_HASH   : 12273538-fd48-a23f-0a19-f1e6fa85caef
##CALIB_HASH : 6abaa72c-aa41-8738-0be9-f592914732f3
##WORKING    : 15.0 mm
##DET_NAME   : EDAX All
##DET_MODE   : MediumLE
#SPECTRUM    :
23,
280,
14795,
10797,
86230,
8754,
3310,
4049,
4471,
12261,
5007,
5663,
51899,
25343,
3407,
3350,
3872,
3285,
3168,
3087,
2943,
2756,
2661,
2546,
2471,
2497,
8025,
4096,
2303,
2859,
2003,
1798,
1776,
1656,
1530,
1571,
1397,
1398,
1307,
1283,
1333,
2416,
40187,
4349,
1117,
2003,
7529,
2381,
854,
842,
1040,
942,
753,
697,
687,
670,
651,
569,
594,
594,
533,
522,
493,
486,
470,
407,
464,
338,
411,
396,
358,
357,
325,
314,
298,
286,
284,
264,
227,
246,
211,
223,
174,
170,
178,
186,
147,
146,
122,
125,
114,
93,
95,
90,
84,
56,
54,
37,
37,
41,
34,
25,
29,
26,
16,
8,
5,
0,
1,
1,
1,
0,
0,
0,
0,
0,
0,
0,
0,
1,
0,
0,
0,
0,
0,
0,
1,
0,
1,
0,
0,
0,
0,
0,
0,
1,
0,
0,
0,
0,
0,
0,
0,
0,
0,
0,
0,
0,
0,
0,
0,
0,
0,
0,
0,
0,
0,
0,
0,
0,
0,
0,
0,
0,
0,
0,
0,
0,
0,
0,
0,
0,
0,
0,
0,
0,
0,
0,
0,
0,
0,
0,
0,
0,
0,
0,
0,
0,
0,
0,
0,
0,
0,
0,
0,
0,
0,
0,
0,
0,
0,
0,
0,
0,
0,
0,
0,
0,
0,
0,
0,
0,
0,
0,
0,
0,
0,
0,
0,
0,
0,
0,
0,
0,
0,
0,
0,
0,
0,
0,
0,
0,
0,
0,
0,
0,
0,
0,
0,
0,
0,
0,
0,
0,
0,
0,
0,
0,
0,
0,
0,
0,
0,
0,
0,
0,
0,
0,
0,
0,
0,
0,
0,
0,
0,
0,
0,
0,
0,
0,
0,
0,
0,
0,
0,
0,
0,
0,
0,
0,
0,
0,
0,
0,
0,
0,
0,
0,
0,
0,
0,
0,
0,
0,
#ENDOFDATA   :

File: MMM2 Rhodonite[7][4].msa
#FORMAT      : EMSA/MAS Spectral Data File
#VERSION     : 1.0
#TITLE       : MMM2 Rhodonite[7][all]
#DATE        : 28-SEP-2025
#TIME        : 23:29
#OWNER       : Unknown
#NPOINTS     : 4096
#NCOLUMNS    : 1
#XUNITS      : eV
#YUNITS      : counts
#DATATYPE    : Y
#XPERCHAN    : 9.99778
#OFFSET      : 1.69135
#BEAMKV      : 15
#SIGNALTYPE  : EDS
#ELEVANGLE   : 35
#AZIMANGLE   : 0
#LIVETIME    : 240.251
#REALTIME    : 256.1
#PROBECUR    : 1.21079
#TAUWIND     : 0
#TDEADLYR    : 0
#TACTLYR     : 0.045
#TALWIND     : 0.025
#CHOFFSET    : 0.0
#XLABEL      : Energy (eV)
#YLABEL      : Counts
#XPOSITION   : -16.67437
#YPOSITION   : 1.7981
#ZPOSITION   : 34.11879
#EDSDET      : SD
##SPECIMEN   : MMM2 Rhodonite[7][all]
##DET_HASH   : 12273538-fd48-a23f-0a19-f1e6fa85caef
##CALIB_HASH : 6abaa72c-aa41-8738-0be9-f592914732f3
##WORKING    : 15.0 mm
##DET_NAME   : EDAX All
##DET_MODE   : MediumLE
#SPECTRUM    :
25,
291,
14447,
10653,
85280,
8729,
3248,
3983,
4385,
12189,
5137,
5550,
52408,
25519,
3573,
3401,
3926,
3352,
3219,
2982,
2914,
2742,
2691,
2606,
2453,
2511,
8390,
4142,
2347,
2874,
2019,
1795,
1759,
1600,
1587,
1584,
1405,
1375,
1398,
1319,
1290,
2354,
40219,
4303,
1146,
2023,
7622,
2314,
925,
837,
1135,
961,
767,
721,
738,
682,
616,
585,
621,
581,
538,
535,
470,
445,
458,
404,
444,
397,
385,
393,
344,
337,
313,
331,
297,
272,
274,
246,
242,
207,
237,
206,
210,
182,
158,
132,
148,
148,
146,
119,
109,
84,
100,
89,
74,
61,
66,
58,
39,
40,
31,
29,
17,
17,
12,
7,
5,
0,
2,
1,
0,
2,
1,
0,
0,
2,
0,
0,
2,
1,
0,
1,
0,
1,
0,
0,
0,
0,
0,
0,
1,
1,
0,
0,
0,
0,
0,
1,
0,
0,
0,
0,
0,
1,
1,
0,
0,
0,
0,
0,
0,
0,
0,
0,
0,
0,
0,
0,
0,
0,
0,
0,
0,
0,
0,
0,
0,
0,
0,
0,
0,
0,
0,
0,
0,
0,
0,
0,
0,
0,
0,
0,
0,
0,
0,
0,
0,
0,
0,
0,
0,
0,
0,
0,
0,
0,
0,
0,
0,
0,
0,
0,
0,
0,
0,
0,
0,
0,
0,
0,
0,
0,
0,
0,
0,
0,
0,
0,
0,
0,
0,
0,
0,
0,
0,
0,
0,
0,
0,
0,
0,
0,
0,
0,
0,
0,
0,
0,
0,
0,
0,
0,
0,
0,
0,
0,
0,
0,
0,
0,
0,
0,
0,
0,
0,
0,
0,
0,
0,
0,
0,
0,
0,
0,
0,
0,
0,
0,
0,
0,
0,
0,
0,
0,
0,
0,
0,
0,
0,
0,
0,
0,
0,
0,
0,
0,
0,
0,
0,
0,
0,
0,
0,
0,
#ENDOFDATA   :