Folder: spex_quant/N132962/Quantification/15 keV/Mengason MM2 (part 4)

File: MMM2 Pentlandite[4][4].msa
#FORMAT      : EMSA/MAS Spectral Data File
#VERSION     : 1.0
#TITLE       : MMM2 Pentlandite[4][all]
#DATE        : 28-SEP-2025
#TIME        : 21:42
#OWNER       : Unknown
#NPOINTS     : 4096
#NCOLUMNS    : 1
#XUNITS      : eV
#YUNITS      : counts
#DATATYPE    : Y
#XPERCHAN    : 9.99778
#OFFSET      : 1.69135
#BEAMKV      : 15
#SIGNALTYPE  : EDS
#ELEVANGLE   : 35
#AZIMANGLE   : 0
#LIVETIME    : 240.257
#REALTIME    : 257.84
#PROBECUR    : 1.21217
#TAUWIND     : 0
#TDEADLYR    : 0
#TACTLYR     : 0.045
#TALWIND     : 0.025
#CHOFFSET    : 0.0
#XLABEL      : Energy (eV)
#YLABEL      : Counts
#XPOSITION   : -15.84533
#YPOSITION   : -2.33825
#ZPOSITION   : 34.11879
#EDSDET      : SD
##SPECIMEN   : MMM2 Pentlandite[4][all]
##DET_HASH   : 12273538-fd48-a23f-0a19-f1e6fa85caef
##CALIB_HASH : 6abaa72c-aa41-8738-0be9-f592914732f3
##WORKING    : 15.0 mm
##DET_NAME   : EDAX All
##DET_MODE   : MediumLE
#SPECTRUM    :
29,
623,
15525,
4737,
16515,
67439,
88070,
4731,
4681,
5344,
5728,
6003,
6288,
6422,
5621,
5894,
56240,
43529,
9691,
3744,
3815,
3788,
3705,
3584,
3422,
3183,
3201,
2993,
2899,
2767,
2719,
2655,
2581,
2764,
2427,
2305,
2260,
2193,
1987,
2054,
1869,
1828,
1761,
1680,
1803,
9696,
27915,
1775,
1496,
1763,
4491,
2850,
1528,
17367,
8697,
1118,
1054,
991,
1320,
3824,
1138,
767,
868,
737,
723,
719,
680,
680,
652,
655,
647,
576,
556,
540,
487,
453,
458,
418,
406,
372,
365,
306,
321,
306,
266,
265,
235,
236,
223,
211,
198,
182,
160,
141,
143,
133,
114,
102,
90,
77,
57,
56,
33,
28,
22,
22,
7,
2,
1,
2,
1,
1,
4,
0,
1,
1,
3,
3,
0,
1,
0,
0,
3,
1,
1,
0,
0,
0,
3,
1,
0,
0,
0,
1,
2,
2,
0,
2,
0,
0,
0,
1,
0,
0,
0,
0,
0,
0,
0,
0,
0,
0,
0,
0,
0,
0,
0,
0,
0,
0,
0,
1,
0,
0,
0,
0,
0,
0,
0,
0,
0,
0,
0,
0,
0,
0,
0,
0,
0,
0,
0,
0,
0,
0,
0,
0,
0,
0,
0,
0,
0,
0,
0,
0,
0,
0,
0,
0,
0,
0,
0,
0,
0,
0,
0,
0,
0,
0,
0,
0,
0,
0,
0,
0,
0,
0,
0,
0,
0,
0,
0,
0,
0,
0,
0,
0,
0,
0,
0,
0,
0,
0,
0,
0,
0,
0,
0,
0,
0,
0,
0,
0,
0,
0,
0,
0,
0,
0,
0,
0,
0,
0,
0,
0,
0,
0,
0,
0,
0,
0,
0,
0,
0,
0,
0,
0,
0,
0,
0,
0,
0,
0,
0,
0,
0,
0,
0,
0,
0,
0,
0,
0,
0,
0,
0,
0,
0,
0,
0,
0,
0,
0,
0,
0,
#ENDOFDATA   :

File: MMM2 Pentlandite[5][4].msa
#FORMAT      : EMSA/MAS Spectral Data File
#VERSION     : 1.0
#TITLE       : MMM2 Pentlandite[5][all]
#DATE        : 28-SEP-2025
#TIME        : 21:43
#OWNER       : Unknown
#NPOINTS     : 4096
#NCOLUMNS    : 1
#XUNITS      : eV
#YUNITS      : counts
#DATATYPE    : Y
#XPERCHAN    : 9.99778
#OFFSET      : 1.69135
#BEAMKV      : 15
#SIGNALTYPE  : EDS
#ELEVANGLE   : 35
#AZIMANGLE   : 0
#LIVETIME    : 240.265
#REALTIME    : 257.836
#PROBECUR    : 1.21217
#TAUWIND     : 0
#TDEADLYR    : 0
#TACTLYR     : 0.045
#TALWIND     : 0.025
#CHOFFSET    : 0.0
#XLABEL      : Energy (eV)
#YLABEL      : Counts
#XPOSITION   : -15.84654
#YPOSITION   : -2.40989
#ZPOSITION   : 34.11879
#EDSDET      : SD
##SPECIMEN   : MMM2 Pentlandite[5][all]
##DET_HASH   : 12273538-fd48-a23f-0a19-f1e6fa85caef
##CALIB_HASH : 6abaa72c-aa41-8738-0be9-f592914732f3
##WORKING    : 15.0 mm
##DET_NAME   : EDAX All
##DET_MODE   : MediumLE
#SPECTRUM    :
14,
634,
15469,
4785,
16649,
66983,
87436,
4585,
4640,
5342,
5745,
6106,
6221,
6310,
5662,
5897,
56221,
43716,
9830,
3835,
3766,
3784,
3612,
3548,
3384,
3244,
3205,
3001,
2972,
2819,
2802,
2622,
2541,
2747,
2423,
2287,
2268,
2212,
2014,
2009,
1893,
1896,
1837,
1706,
1801,
9824,
27553,
1827,
1471,
1731,
4640,
2897,
1521,
17739,
8837,
1182,
1060,
1039,
1296,
3796,
1204,
813,
829,
792,
710,
715,
732,
630,
623,
617,
644,
589,
545,
526,
478,
498,
479,
436,
376,
391,
381,
350,
308,
316,
313,
286,
215,
248,
205,
184,
194,
197,
148,
135,
123,
141,
124,
90,
97,
81,
49,
61,
44,
34,
25,
18,
7,
6,
4,
3,
0,
1,
3,
1,
2,
1,
3,
0,
1,
1,
0,
2,
1,
1,
1,
1,
0,
0,
0,
0,
0,
1,
1,
2,
0,
0,
0,
0,
0,
1,
0,
0,
1,
0,
0,
0,
1,
0,
0,
0,
0,
0,
0,
0,
0,
0,
0,
0,
0,
0,
0,
0,
0,
0,
0,
0,
0,
0,
0,
0,
0,
0,
0,
0,
0,
0,
0,
0,
0,
0,
0,
0,
0,
0,
0,
0,
0,
0,
0,
0,
0,
0,
0,
0,
0,
0,
0,
0,
0,
0,
0,
0,
0,
0,
0,
0,
0,
0,
0,
0,
0,
0,
0,
0,
0,
0,
0,
0,
0,
0,
0,
0,
0,
0,
0,
0,
0,
0,
0,
0,
0,
0,
0,
0,
0,
0,
0,
0,
0,
0,
0,
0,
0,
0,
0,
0,
0,
0,
0,
0,
0,
0,
0,
0,
0,
0,
0,
0,
0,
0,
0,
0,
0,
0,
0,
0,
0,
0,
0,
0,
0,
0,
0,
0,
0,
0,
0,
0,
0,
0,
0,
0,
0,
0,
0,
0,
0,
0,
0,
0,
0,
0,
0,
0,
#ENDOFDATA   :

File: MMM2 Pentlandite[6][4].msa
#FORMAT      : EMSA/MAS Spectral Data File
#VERSION     : 1.0
#TITLE       : MMM2 Pentlandite[6][all]
#DATE        : 28-SEP-2025
#TIME        : 21:45
#OWNER       : Unknown
#NPOINTS     : 4096
#NCOLUMNS    : 1
#XUNITS      : eV
#YUNITS      : counts
#DATATYPE    : Y
#XPERCHAN    : 9.99778
#OFFSET      : 1.69135
#BEAMKV      : 15
#SIGNALTYPE  : EDS
#ELEVANGLE   : 35
#AZIMANGLE   : 0
#LIVETIME    : 240.303
#REALTIME    : 257.9
#PROBECUR    : 1.21217
#TAUWIND     : 0
#TDEADLYR    : 0
#TACTLYR     : 0.045
#TALWIND     : 0.025
#CHOFFSET    : 0.0
#XLABEL      : Energy (eV)
#YLABEL      : Counts
#XPOSITION   : -15.86015
#YPOSITION   : -2.37821
#ZPOSITION   : 34.11879
#EDSDET      : SD
##SPECIMEN   : MMM2 Pentlandite[6][all]
##DET_HASH   : 12273538-fd48-a23f-0a19-f1e6fa85caef
##CALIB_HASH : 6abaa72c-aa41-8738-0be9-f592914732f3
##WORKING    : 15.0 mm
##DET_NAME   : EDAX All
##DET_MODE   : MediumLE
#SPECTRUM    :
22,
625,
15740,
4759,
16710,
66918,
87513,
4635,
4699,
5293,
5691,
6075,
6324,
6184,
5514,
5932,
55910,
43594,
9716,
3882,
3807,
3769,
3616,
3517,
3329,
3228,
3148,
2979,
2994,
2918,
2730,
2621,
2527,
2785,
2479,
2318,
2289,
2144,
2112,
1917,
1840,
1940,
1829,
1677,
1805,
9851,
27682,
1694,
1463,
1733,
4596,
2837,
1515,
17682,
8756,
1158,
1066,
1007,
1358,
3859,
1126,
814,
822,
783,
698,
732,
699,
676,
680,
622,
623,
620,
562,
506,
469,
447,
456,
434,
377,
378,
354,
354,
324,
302,
270,
270,
233,
238,
214,
224,
196,
158,
172,
133,
120,
108,
97,
93,
70,
75,
80,
36,
45,
39,
26,
19,
12,
7,
1,
1,
0,
2,
0,
1,
1,
0,
5,
2,
1,
0,
1,
0,
1,
1,
0,
0,
1,
0,
2,
1,
0,
0,
3,
0,
0,
0,
0,
0,
1,
1,
0,
0,
0,
0,
0,
0,
0,
0,
0,
0,
0,
0,
0,
0,
0,
0,
0,
0,
0,
0,
0,
0,
0,
0,
0,
0,
0,
0,
0,
0,
0,
0,
0,
0,
0,
0,
0,
0,
0,
0,
0,
0,
0,
0,
0,
0,
0,
0,
0,
0,
0,
0,
0,
0,
0,
0,
0,
0,
0,
0,
0,
0,
0,
0,
0,
0,
0,
0,
0,
0,
0,
0,
0,
0,
0,
0,
0,
0,
0,
0,
0,
0,
0,
0,
0,
0,
0,
0,
0,
0,
0,
0,
0,
0,
0,
0,
0,
0,
0,
0,
0,
0,
0,
0,
0,
0,
0,
0,
0,
0,
0,
0,
0,
0,
0,
0,
0,
0,
0,
0,
0,
0,
0,
0,
0,
0,
0,
0,
0,
0,
0,
0,
0,
0,
0,
0,
0,
0,
0,
0,
0,
1,
0,
0,
0,
0,
0,
0,
0,
0,
0,
0,
0,
0,
#ENDOFDATA   :

File: MMM2 Pentlandite[7][4].msa
#FORMAT      : EMSA/MAS Spectral Data File
#VERSION     : 1.0
#TITLE       : MMM2 Pentlandite[7][all]
#DATE        : 28-SEP-2025
#TIME        : 21:46
#OWNER       : Unknown
#NPOINTS     : 4096
#NCOLUMNS    : 1
#XUNITS      : eV
#YUNITS      : counts
#DATATYPE    : Y
#XPERCHAN    : 9.99778
#OFFSET      : 1.69135
#BEAMKV      : 15
#SIGNALTYPE  : EDS
#ELEVANGLE   : 35
#AZIMANGLE   : 0
#LIVETIME    : 240.245
#REALTIME    : 257.831
#PROBECUR    : 1.21217
#TAUWIND     : 0
#TDEADLYR    : 0
#TACTLYR     : 0.045
#TALWIND     : 0.025
#CHOFFSET    : 0.0
#XLABEL      : Energy (eV)
#YLABEL      : Counts
#XPOSITION   : -15.84511
#YPOSITION   : -2.33189
#ZPOSITION   : 34.11879
#EDSDET      : SD
##SPECIMEN   : MMM2 Pentlandite[7][all]
##DET_HASH   : 12273538-fd48-a23f-0a19-f1e6fa85caef
##CALIB_HASH : 6abaa72c-aa41-8738-0be9-f592914732f3
##WORKING    : 15.0 mm
##DET_NAME   : EDAX All
##DET_MODE   : MediumLE
#SPECTRUM    :
24,
621,
15821,
4795,
16871,
67081,
87415,
4590,
4667,
5360,
5866,
6150,
6349,
6342,
5607,
6084,
56033,
43839,
9706,
3918,
3779,
3867,
3624,
3619,
3402,
3230,
3144,
2939,
2952,
2872,
2789,
2612,
2512,
2784,
2319,
2225,
2208,
2078,
2146,
1999,
1946,
1866,
1799,
1726,
1781,
9876,
27216,
1740,
1457,
1727,
4548,
2879,
1507,
17637,
8794,
1142,
1018,
1042,
1357,
3749,
1098,
805,
835,
778,
749,
675,
717,
675,
622,
601,
603,
557,
558,
502,
488,
469,
431,
423,
377,
361,
359,
327,
315,
302,
255,
278,
252,
218,
229,
202,
181,
183,
142,
136,
138,
111,
104,
96,
78,
78,
48,
47,
45,
49,
35,
27,
12,
9,
4,
4,
0,
4,
5,
2,
2,
2,
0,
0,
1,
0,
1,
0,
1,
2,
0,
3,
0,
0,
1,
0,
2,
2,
2,
0,
0,
1,
0,
0,
0,
0,
1,
0,
1,
0,
0,
1,
2,
1,
0,
1,
0,
0,
0,
0,
1,
0,
0,
0,
0,
0,
0,
0,
0,
0,
0,
0,
0,
0,
0,
0,
0,
0,
0,
0,
0,
0,
0,
0,
0,
0,
0,
0,
0,
0,
0,
0,
0,
0,
0,
0,
0,
0,
0,
0,
0,
0,
0,
0,
0,
0,
0,
0,
0,
0,
0,
0,
0,
0,
0,
0,
0,
0,
0,
0,
0,
0,
0,
0,
0,
0,
0,
0,
0,
0,
0,
0,
0,
0,
0,
0,
0,
0,
0,
0,
0,
0,
0,
0,
0,
0,
0,
0,
0,
0,
0,
0,
0,
0,
0,
0,
0,
0,
0,
0,
0,
0,
0,
0,
0,
0,
0,
0,
0,
0,
0,
0,
0,
0,
0,
0,
0,
0,
0,
0,
0,
0,
0,
0,
0,
0,
0,
0,
0,
0,
0,
0,
0,
0,
0,
0,
0,
0,
0,
0,
#ENDOFDATA   :

File: MMM2 Plagioclaise[0][4].msa
#FORMAT      : EMSA/MAS Spectral Data File
#VERSION     : 1.0
#TITLE       : MMM2 Plagioclaise[0][all]
#DATE        : 28-SEP-2025
#TIME        : 23:11
#OWNER       : Unknown
#NPOINTS     : 4096
#NCOLUMNS    : 1
#XUNITS      : eV
#YUNITS      : counts
#DATATYPE    : Y
#XPERCHAN    : 9.99778
#OFFSET      : 1.69135
#BEAMKV      : 15
#SIGNALTYPE  : EDS
#ELEVANGLE   : 35
#AZIMANGLE   : 0
#LIVETIME    : 240.289
#REALTIME    : 256.485
#PROBECUR    : 1.2132
#TAUWIND     : 0
#TDEADLYR    : 0
#TACTLYR     : 0.045
#TALWIND     : 0.025
#CHOFFSET    : 0.0
#XLABEL      : Energy (eV)
#YLABEL      : Counts
#XPOSITION   : -18.60386
#YPOSITION   : 2.00153
#ZPOSITION   : 34.11879
#EDSDET      : SD
##SPECIMEN   : MMM2 Plagioclaise[0][all]
##DET_HASH   : 12273538-fd48-a23f-0a19-f1e6fa85caef
##CALIB_HASH : 6abaa72c-aa41-8738-0be9-f592914732f3
##WORKING    : 15.0 mm
##DET_NAME   : EDAX All
##DET_MODE   : MediumLE
#SPECTRUM    :
27,
248,
13137,
7799,
68947,
3213,
3757,
9006,
5584,
5608,
12980,
48115,
54567,
26104,
3071,
2533,
3083,
2477,
2355,
2278,
2246,
2183,
1984,
2358,
2380,
2136,
16195,
6217,
2104,
3699,
1484,
1255,
1383,
1182,
1152,
1084,
1016,
1094,
933,
1012,
906,
925,
799,
790,
743,
797,
937,
661,
612,
635,
593,
552,
570,
556,
472,
505,
485,
466,
422,
392,
382,
332,
349,
323,
332,
293,
310,
286,
292,
268,
253,
218,
210,
206,
176,
195,
171,
159,
146,
153,
160,
108,
130,
108,
112,
112,
96,
96,
90,
74,
64,
60,
58,
60,
49,
38,
33,
36,
37,
26,
18,
16,
23,
4,
8,
6,
5,
0,
0,
0,
0,
0,
0,
0,
0,
0,
0,
0,
0,
0,
0,
1,
0,
0,
0,
0,
0,
0,
0,
0,
0,
0,
0,
0,
0,
0,
0,
0,
0,
0,
0,
0,
0,
0,
0,
0,
0,
0,
0,
0,
0,
0,
0,
0,
0,
0,
0,
0,
0,
0,
0,
1,
0,
0,
0,
0,
0,
0,
0,
0,
0,
0,
0,
0,
0,
0,
0,
0,
0,
0,
0,
0,
0,
0,
0,
0,
0,
0,
0,
0,
0,
0,
0,
0,
0,
0,
0,
0,
0,
0,
0,
0,
0,
0,
0,
0,
0,
0,
0,
0,
0,
0,
0,
0,
0,
0,
0,
0,
0,
0,
0,
0,
0,
0,
0,
0,
0,
0,
0,
0,
0,
0,
0,
0,
0,
0,
0,
0,
0,
0,
0,
0,
0,
0,
0,
0,
0,
0,
0,
0,
0,
0,
0,
0,
0,
0,
0,
0,
0,
0,
0,
0,
0,
0,
0,
0,
0,
0,
0,
0,
0,
0,
0,
0,
0,
0,
0,
0,
0,
0,
0,
0,
0,
0,
0,
0,
0,
0,
0,
0,
0,
0,
0,
0,
#ENDOFDATA   :

File: MMM2 Plagioclaise[1][4].msa
#FORMAT      : EMSA/MAS Spectral Data File
#VERSION     : 1.0
#TITLE       : MMM2 Plagioclaise[1][all]
#DATE        : 28-SEP-2025
#TIME        : 23:12
#OWNER       : Unknown
#NPOINTS     : 4096
#NCOLUMNS    : 1
#XUNITS      : eV
#YUNITS      : counts
#DATATYPE    : Y
#XPERCHAN    : 9.99778
#OFFSET      : 1.69135
#BEAMKV      : 15
#SIGNALTYPE  : EDS
#ELEVANGLE   : 35
#AZIMANGLE   : 0
#LIVETIME    : 240.278
#REALTIME    : 256.483
#PROBECUR    : 1.2132
#TAUWIND     : 0
#TDEADLYR    : 0
#TACTLYR     : 0.045
#TALWIND     : 0.025
#CHOFFSET    : 0.0
#XLABEL      : Energy (eV)
#YLABEL      : Counts
#XPOSITION   : -18.6038
#YPOSITION   : 1.97352
#ZPOSITION   : 34.11879
#EDSDET      : SD
##SPECIMEN   : MMM2 Plagioclaise[1][all]
##DET_HASH   : 12273538-fd48-a23f-0a19-f1e6fa85caef
##CALIB_HASH : 6abaa72c-aa41-8738-0be9-f592914732f3
##WORKING    : 15.0 mm
##DET_NAME   : EDAX All
##DET_MODE   : MediumLE
#SPECTRUM    :
22,
222,
13181,
8032,
69281,
3225,
3741,
8982,
5361,
5467,
13317,
48171,
54979,
26220,
3147,
2533,
3097,
2438,
2306,
2260,
2298,
2076,
2019,
2441,
2542,
2057,
16530,
6144,
2170,
3646,
1396,
1307,
1383,
1228,
1219,
1118,
1087,
1065,
982,
990,
934,
888,
844,
816,
796,
823,
954,
706,
678,
572,
605,
566,
563,
505,
499,
489,
460,
428,
410,
401,
397,
330,
377,
333,
324,
332,
317,
311,
259,
284,
242,
225,
209,
212,
233,
201,
173,
163,
152,
159,
164,
138,
156,
113,
107,
100,
94,
89,
90,
75,
75,
76,
55,
53,
53,
37,
45,
38,
22,
30,
17,
11,
12,
14,
11,
6,
5,
0,
1,
1,
1,
0,
0,
0,
0,
0,
0,
1,
0,
0,
0,
0,
0,
1,
0,
0,
0,
0,
0,
0,
0,
0,
0,
0,
0,
0,
0,
0,
0,
0,
0,
0,
0,
0,
0,
0,
0,
0,
0,
0,
0,
0,
0,
0,
0,
0,
0,
0,
0,
0,
0,
0,
0,
0,
0,
0,
0,
0,
0,
0,
0,
0,
0,
0,
0,
0,
0,
0,
0,
0,
0,
0,
0,
0,
0,
0,
0,
0,
0,
0,
0,
0,
0,
0,
0,
0,
0,
0,
0,
0,
0,
0,
0,
0,
0,
0,
0,
0,
0,
0,
0,
0,
0,
0,
0,
0,
0,
0,
0,
0,
0,
0,
0,
0,
0,
0,
0,
0,
0,
0,
0,
0,
0,
0,
0,
0,
0,
0,
0,
0,
0,
0,
0,
0,
0,
0,
0,
0,
0,
0,
0,
0,
0,
0,
0,
0,
0,
0,
0,
0,
0,
0,
0,
0,
0,
0,
0,
0,
0,
0,
0,
0,
0,
0,
0,
0,
0,
0,
0,
0,
0,
0,
0,
0,
0,
0,
0,
0,
0,
0,
0,
0,
0,
0,
#ENDOFDATA   :

File: MMM2 Plagioclaise[2][4].msa
#FORMAT      : EMSA/MAS Spectral Data File
#VERSION     : 1.0
#TITLE       : MMM2 Plagioclaise[2][all]
#DATE        : 28-SEP-2025
#TIME        : 23:13
#OWNER       : Unknown
#NPOINTS     : 4096
#NCOLUMNS    : 1
#XUNITS      : eV
#YUNITS      : counts
#DATATYPE    : Y
#XPERCHAN    : 9.99778
#OFFSET      : 1.69135
#BEAMKV      : 15
#SIGNALTYPE  : EDS
#ELEVANGLE   : 35
#AZIMANGLE   : 0
#LIVETIME    : 240.237
#REALTIME    : 256.429
#PROBECUR    : 1.2132
#TAUWIND     : 0
#TDEADLYR    : 0
#TACTLYR     : 0.045
#TALWIND     : 0.025
#CHOFFSET    : 0.0
#XLABEL      : Energy (eV)
#YLABEL      : Counts
#XPOSITION   : -18.62533
#YPOSITION   : 2.047
#ZPOSITION   : 34.11879
#EDSDET      : SD
##SPECIMEN   : MMM2 Plagioclaise[2][all]
##DET_HASH   : 12273538-fd48-a23f-0a19-f1e6fa85caef
##CALIB_HASH : 6abaa72c-aa41-8738-0be9-f592914732f3
##WORKING    : 15.0 mm
##DET_NAME   : EDAX All
##DET_MODE   : MediumLE
#SPECTRUM    :
33,
225,
13175,
7905,
69713,
3089,
3664,
8902,
5661,
5574,
13275,
48119,
55066,
26438,
3096,
2472,
3044,
2498,
2280,
2247,
2222,
2219,
1990,
2419,
2486,
2154,
16419,
6083,
2116,
3586,
1429,
1305,
1384,
1209,
1219,
1112,
1075,
1061,
958,
962,
952,
858,
854,
776,
770,
774,
920,
652,
625,
671,
624,
588,
577,
508,
528,
495,
443,
454,
423,
440,
397,
375,
396,
291,
349,
322,
302,
286,
256,
251,
278,
212,
229,
180,
212,
198,
163,
153,
162,
147,
136,
132,
123,
107,
108,
120,
97,
93,
95,
81,
74,
62,
58,
46,
49,
41,
35,
37,
27,
32,
20,
22,
13,
15,
5,
12,
2,
3,
0,
0,
0,
0,
0,
0,
0,
0,
0,
0,
0,
0,
0,
0,
1,
0,
0,
0,
0,
0,
0,
0,
0,
0,
0,
0,
0,
0,
0,
0,
0,
0,
0,
0,
0,
0,
0,
0,
0,
0,
0,
0,
0,
0,
0,
0,
0,
0,
0,
0,
0,
0,
0,
0,
0,
0,
0,
0,
0,
0,
0,
0,
0,
0,
0,
0,
0,
0,
0,
0,
0,
0,
0,
0,
0,
0,
0,
0,
0,
0,
0,
0,
0,
0,
0,
0,
0,
0,
0,
0,
0,
0,
0,
0,
0,
0,
0,
0,
0,
0,
0,
0,
0,
0,
0,
0,
0,
0,
0,
0,
0,
0,
0,
0,
0,
0,
0,
0,
0,
0,
0,
0,
0,
0,
0,
0,
0,
0,
0,
0,
0,
0,
0,
0,
0,
0,
0,
0,
0,
0,
0,
0,
0,
0,
0,
0,
0,
0,
0,
0,
0,
0,
0,
0,
0,
0,
0,
0,
0,
0,
0,
0,
0,
0,
0,
0,
0,
0,
0,
0,
0,
0,
0,
0,
0,
0,
0,
0,
0,
0,
0,
0,
0,
0,
0,
0,
#ENDOFDATA   :

File: MMM2 Plagioclaise[3][4].msa
#FORMAT      : EMSA/MAS Spectral Data File
#VERSION     : 1.0
#TITLE       : MMM2 Plagioclaise[3][all]
#DATE        : 28-SEP-2025
#TIME        : 23:14
#OWNER       : Unknown
#NPOINTS     : 4096
#NCOLUMNS    : 1
#XUNITS      : eV
#YUNITS      : counts
#DATATYPE    : Y
#XPERCHAN    : 9.99778
#OFFSET      : 1.69135
#BEAMKV      : 15
#SIGNALTYPE  : EDS
#ELEVANGLE   : 35
#AZIMANGLE   : 0
#LIVETIME    : 240.294
#REALTIME    : 256.482
#PROBECUR    : 1.2132
#TAUWIND     : 0
#TDEADLYR    : 0
#TACTLYR     : 0.045
#TALWIND     : 0.025
#CHOFFSET    : 0.0
#XLABEL      : Energy (eV)
#YLABEL      : Counts
#XPOSITION   : -18.61427
#YPOSITION   : 1.95269
#ZPOSITION   : 34.11879
#EDSDET      : SD
##SPECIMEN   : MMM2 Plagioclaise[3][all]
##DET_HASH   : 12273538-fd48-a23f-0a19-f1e6fa85caef
##CALIB_HASH : 6abaa72c-aa41-8738-0be9-f592914732f3
##WORKING    : 15.0 mm
##DET_NAME   : EDAX All
##DET_MODE   : MediumLE
#SPECTRUM    :
21,
251,
13140,
7917,
69551,
3229,
3648,
9091,
5470,
5483,
13251,
48158,
54954,
26537,
3038,
2524,
3031,
2519,
2407,
2292,
2217,
2181,
1977,
2413,
2417,
2164,
16257,
6296,
2063,
3446,
1400,
1280,
1346,
1198,
1122,
1120,
1052,
1058,
1015,
934,
951,
895,
854,
791,
829,
767,
931,
714,
675,
581,
568,
599,
563,
528,
529,
512,
460,
409,
435,
403,
367,
370,
351,
339,
318,
348,
301,
307,
280,
257,
241,
226,
235,
219,
217,
220,
180,
168,
194,
158,
126,
154,
108,
117,
119,
94,
109,
84,
67,
76,
77,
65,
58,
51,
54,
44,
33,
40,
28,
23,
27,
12,
11,
9,
11,
6,
2,
0,
0,
0,
1,
0,
0,
0,
0,
1,
0,
0,
0,
0,
1,
0,
0,
0,
0,
0,
0,
0,
0,
1,
0,
0,
0,
1,
0,
0,
0,
0,
0,
0,
0,
0,
0,
0,
0,
0,
0,
0,
0,
0,
0,
0,
0,
0,
0,
0,
0,
0,
0,
0,
0,
0,
0,
0,
0,
0,
0,
0,
0,
0,
0,
0,
0,
0,
0,
0,
0,
0,
0,
0,
0,
0,
0,
0,
0,
0,
0,
0,
0,
0,
0,
0,
0,
0,
0,
0,
0,
0,
0,
0,
0,
0,
0,
0,
0,
0,
0,
0,
0,
0,
0,
0,
0,
0,
0,
0,
0,
0,
0,
0,
0,
0,
0,
0,
0,
0,
0,
0,
0,
0,
0,
0,
0,
0,
0,
0,
0,
0,
0,
0,
0,
0,
0,
0,
0,
0,
0,
0,
0,
0,
0,
0,
0,
0,
0,
0,
0,
0,
0,
0,
0,
0,
0,
0,
0,
0,
0,
0,
0,
0,
0,
0,
0,
0,
0,
0,
0,
0,
0,
0,
0,
0,
0,
0,
0,
0,
0,
0,
0,
0,
0,
0,
0,
0,
#ENDOFDATA   :

File: MMM2 Plagioclaise[4][4].msa
#FORMAT      : EMSA/MAS Spectral Data File
#VERSION     : 1.0
#TITLE       : MMM2 Plagioclaise[4][all]
#DATE        : 28-SEP-2025
#TIME        : 23:16
#OWNER       : Unknown
#NPOINTS     : 4096
#NCOLUMNS    : 1
#XUNITS      : eV
#YUNITS      : counts
#DATATYPE    : Y
#XPERCHAN    : 9.99778
#OFFSET      : 1.69135
#BEAMKV      : 15
#SIGNALTYPE  : EDS
#ELEVANGLE   : 35
#AZIMANGLE   : 0
#LIVETIME    : 240.245
#REALTIME    : 256.433
#PROBECUR    : 1.2132
#TAUWIND     : 0
#TDEADLYR    : 0
#TACTLYR     : 0.045
#TALWIND     : 0.025
#CHOFFSET    : 0.0
#XLABEL      : Energy (eV)
#YLABEL      : Counts
#XPOSITION   : -18.61802
#YPOSITION   : 2.00438
#ZPOSITION   : 34.11879
#EDSDET      : SD
##SPECIMEN   : MMM2 Plagioclaise[4][all]
##DET_HASH   : 12273538-fd48-a23f-0a19-f1e6fa85caef
##CALIB_HASH : 6abaa72c-aa41-8738-0be9-f592914732f3
##WORKING    : 15.0 mm
##DET_NAME   : EDAX All
##DET_MODE   : MediumLE
#SPECTRUM    :
27,
197,
13308,
8033,
69797,
3202,
3653,
9039,
5501,
5449,
13336,
48221,
54995,
26134,
3147,
2617,
3048,
2459,
2345,
2275,
2291,
2198,
2023,
2366,
2439,
2112,
16163,
6249,
2097,
3530,
1465,
1283,
1331,
1117,
1273,
1066,
1087,
1109,
948,
970,
883,
840,
820,
767,
768,
810,
968,
614,
651,
661,
635,
590,
553,
512,
506,
473,
460,
414,
440,
429,
402,
345,
400,
350,
363,
305,
266,
297,
267,
283,
280,
229,
178,
189,
221,
200,
209,
169,
164,
147,
138,
150,
114,
100,
110,
113,
83,
89,
79,
76,
65,
66,
65,
47,
45,
37,
43,
37,
26,
29,
32,
27,
10,
11,
11,
8,
7,
2,
0,
0,
0,
0,
0,
0,
0,
0,
0,
0,
0,
0,
0,
0,
0,
0,
1,
0,
0,
0,
0,
0,
0,
0,
0,
0,
0,
0,
0,
0,
0,
0,
0,
0,
0,
0,
0,
0,
0,
0,
0,
0,
0,
0,
0,
0,
0,
0,
0,
0,
0,
0,
0,
0,
0,
0,
0,
0,
0,
0,
0,
0,
0,
0,
0,
0,
0,
0,
0,
0,
0,
0,
0,
0,
0,
0,
0,
0,
0,
0,
0,
0,
0,
0,
0,
0,
0,
0,
0,
0,
0,
0,
0,
0,
0,
0,
0,
0,
0,
0,
0,
0,
0,
0,
0,
0,
0,
0,
0,
0,
0,
0,
0,
0,
0,
0,
0,
0,
0,
0,
0,
0,
0,
0,
0,
0,
0,
0,
0,
0,
0,
0,
0,
0,
0,
0,
0,
0,
0,
0,
0,
0,
0,
0,
0,
0,
0,
0,
0,
0,
0,
0,
0,
0,
0,
0,
0,
0,
0,
0,
0,
0,
0,
0,
0,
0,
0,
0,
0,
0,
0,
0,
0,
0,
0,
0,
0,
0,
0,
0,
0,
0,
0,
0,
0,
0,
#ENDOFDATA   :

File: MMM2 Plagioclaise[5][4].msa
#FORMAT      : EMSA/MAS Spectral Data File
#VERSION     : 1.0
#TITLE       : MMM2 Plagioclaise[5][all]
#DATE        : 28-SEP-2025
#TIME        : 23:17
#OWNER       : Unknown
#NPOINTS     : 4096
#NCOLUMNS    : 1
#XUNITS      : eV
#YUNITS      : counts
#DATATYPE    : Y
#XPERCHAN    : 9.99778
#OFFSET      : 1.69135
#BEAMKV      : 15
#SIGNALTYPE  : EDS
#ELEVANGLE   : 35
#AZIMANGLE   : 0
#LIVETIME    : 240.29
#REALTIME    : 256.481
#PROBECUR    : 1.2132
#TAUWIND     : 0
#TDEADLYR    : 0
#TACTLYR     : 0.045
#TALWIND     : 0.025
#CHOFFSET    : 0.0
#XLABEL      : Energy (eV)
#YLABEL      : Counts
#XPOSITION   : -18.61228
#YPOSITION   : 1.96468
#ZPOSITION   : 34.11879
#EDSDET      : SD
##SPECIMEN   : MMM2 Plagioclaise[5][all]
##DET_HASH   : 12273538-fd48-a23f-0a19-f1e6fa85caef
##CALIB_HASH : 6abaa72c-aa41-8738-0be9-f592914732f3
##WORKING    : 15.0 mm
##DET_NAME   : EDAX All
##DET_MODE   : MediumLE
#SPECTRUM    :
32,
244,
13061,
8009,
69441,
3142,
3681,
9012,
5553,
5475,
13149,
48102,
54973,
26505,
3054,
2558,
3015,
2417,
2370,
2260,
2271,
2203,
2015,
2306,
2611,
2142,
16284,
6072,
2114,
3548,
1412,
1263,
1347,
1255,
1156,
1175,
1034,
1069,
1005,
967,
934,
869,
858,
845,
771,
835,
908,
649,
685,
644,
611,
560,
574,
539,
513,
471,
481,
444,
421,
414,
334,
378,
340,
295,
327,
332,
327,
252,
273,
264,
217,
232,
220,
206,
205,
176,
203,
181,
175,
145,
134,
120,
119,
125,
105,
91,
91,
92,
72,
71,
71,
59,
63,
51,
38,
24,
36,
36,
33,
24,
27,
21,
19,
21,
6,
12,
6,
0,
1,
1,
1,
1,
1,
1,
0,
0,
0,
0,
0,
0,
0,
0,
0,
0,
0,
0,
1,
0,
0,
0,
0,
0,
0,
0,
0,
0,
0,
0,
0,
0,
0,
0,
0,
0,
0,
1,
0,
0,
0,
0,
0,
0,
0,
0,
0,
0,
0,
0,
0,
0,
0,
0,
0,
0,
0,
0,
1,
0,
0,
0,
0,
0,
0,
0,
0,
0,
0,
0,
0,
0,
0,
0,
0,
0,
0,
0,
0,
0,
0,
0,
0,
0,
0,
0,
0,
0,
0,
0,
0,
0,
0,
0,
0,
0,
0,
0,
0,
0,
0,
0,
0,
0,
0,
0,
0,
0,
0,
0,
0,
0,
0,
0,
0,
0,
0,
0,
0,
0,
0,
0,
0,
0,
0,
0,
0,
0,
0,
0,
0,
0,
0,
0,
0,
0,
0,
0,
0,
0,
0,
0,
0,
0,
0,
0,
0,
0,
0,
0,
0,
0,
0,
0,
0,
0,
0,
0,
0,
0,
0,
0,
0,
0,
0,
0,
0,
0,
0,
0,
0,
0,
0,
0,
0,
0,
0,
0,
0,
0,
0,
0,
0,
0,
0,
0,
#ENDOFDATA   :

File: MMM2 Plagioclaise[6][4].msa
#FORMAT      : EMSA/MAS Spectral Data File
#VERSION     : 1.0
#TITLE       : MMM2 Plagioclaise[6][all]
#DATE        : 28-SEP-2025
#TIME        : 23:18
#OWNER       : Unknown
#NPOINTS     : 4096
#NCOLUMNS    : 1
#XUNITS      : eV
#YUNITS      : counts
#DATATYPE    : Y
#XPERCHAN    : 9.99778
#OFFSET      : 1.69135
#BEAMKV      : 15
#SIGNALTYPE  : EDS
#ELEVANGLE   : 35
#AZIMANGLE   : 0
#LIVETIME    : 240.252
#REALTIME    : 256.422
#PROBECUR    : 1.2132
#TAUWIND     : 0
#TDEADLYR    : 0
#TACTLYR     : 0.045
#TALWIND     : 0.025
#CHOFFSET    : 0.0
#XLABEL      : Energy (eV)
#YLABEL      : Counts
#XPOSITION   : -18.65928
#YPOSITION   : 2.05125
#ZPOSITION   : 34.11879
#EDSDET      : SD
##SPECIMEN   : MMM2 Plagioclaise[6][all]
##DET_HASH   : 12273538-fd48-a23f-0a19-f1e6fa85caef
##CALIB_HASH : 6abaa72c-aa41-8738-0be9-f592914732f3
##WORKING    : 15.0 mm
##DET_NAME   : EDAX All
##DET_MODE   : MediumLE
#SPECTRUM    :
32,
236,
12943,
7976,
68962,
3207,
3746,
8994,
5507,
5527,
12831,
47574,
54607,
26520,
3077,
2557,
3037,
2336,
2329,
2202,
2174,
2140,
1997,
2427,
2502,
2150,
16083,
6158,
2253,
3598,
1420,
1292,
1363,
1227,
1124,
1117,
1050,
1065,
1005,
987,
911,
831,
870,
797,
794,
780,
899,
678,
676,
641,
633,
576,
523,
542,
512,
526,
421,
452,
432,
395,
378,
350,
351,
322,
341,
298,
301,
297,
286,
268,
237,
249,
229,
213,
200,
217,
199,
174,
167,
153,
159,
133,
123,
119,
107,
106,
100,
95,
86,
75,
69,
65,
59,
51,
50,
36,
33,
32,
29,
19,
17,
20,
17,
7,
9,
4,
4,
0,
0,
0,
0,
2,
1,
1,
0,
0,
0,
0,
0,
0,
0,
0,
0,
0,
0,
0,
0,
0,
0,
0,
0,
0,
0,
0,
0,
0,
0,
0,
0,
0,
0,
0,
0,
0,
0,
0,
0,
0,
0,
0,
0,
0,
0,
0,
0,
0,
0,
0,
0,
0,
0,
0,
0,
0,
0,
0,
0,
0,
0,
0,
0,
0,
0,
0,
0,
0,
0,
0,
0,
0,
0,
0,
0,
0,
0,
0,
0,
0,
0,
0,
0,
0,
0,
0,
0,
0,
0,
0,
0,
0,
0,
0,
0,
0,
0,
0,
0,
0,
0,
0,
0,
0,
0,
0,
0,
0,
0,
0,
0,
0,
0,
0,
0,
0,
0,
0,
0,
0,
0,
0,
0,
0,
0,
0,
0,
0,
0,
0,
0,
0,
0,
0,
0,
0,
0,
0,
0,
0,
0,
0,
0,
0,
0,
0,
0,
0,
0,
0,
0,
0,
0,
0,
0,
0,
0,
0,
0,
0,
0,
0,
0,
0,
0,
0,
0,
0,
0,
0,
0,
0,
0,
0,
0,
0,
0,
0,
0,
0,
0,
0,
0,
0,
0,
0,
#ENDOFDATA   :

File: MMM2 Plagioclaise[7][4].msa
#FORMAT      : EMSA/MAS Spectral Data File
#VERSION     : 1.0
#TITLE       : MMM2 Plagioclaise[7][all]
#DATE        : 28-SEP-2025
#TIME        : 23:19
#OWNER       : Unknown
#NPOINTS     : 4096
#NCOLUMNS    : 1
#XUNITS      : eV
#YUNITS      : counts
#DATATYPE    : Y
#XPERCHAN    : 9.99778
#OFFSET      : 1.69135
#BEAMKV      : 15
#SIGNALTYPE  : EDS
#ELEVANGLE   : 35
#AZIMANGLE   : 0
#LIVETIME    : 240.281
#REALTIME    : 256.486
#PROBECUR    : 1.2132
#TAUWIND     : 0
#TDEADLYR    : 0
#TACTLYR     : 0.045
#TALWIND     : 0.025
#CHOFFSET    : 0.0
#XLABEL      : Energy (eV)
#YLABEL      : Counts
#XPOSITION   : -18.59428
#YPOSITION   : 1.98377
#ZPOSITION   : 34.11879
#EDSDET      : SD
##SPECIMEN   : MMM2 Plagioclaise[7][all]
##DET_HASH   : 12273538-fd48-a23f-0a19-f1e6fa85caef
##CALIB_HASH : 6abaa72c-aa41-8738-0be9-f592914732f3
##WORKING    : 15.0 mm
##DET_NAME   : EDAX All
##DET_MODE   : MediumLE
#SPECTRUM    :
19,
233,
13308,
8067,
69336,
3216,
3688,
9218,
5533,
5398,
13129,
47793,
54877,
26128,
3200,
2476,
3025,
2490,
2429,
2230,
2206,
2172,
2003,
2305,
2560,
2141,
16423,
6230,
2089,
3494,
1402,
1329,
1424,
1192,
1134,
1146,
1040,
1114,
1000,
959,
903,
896,
810,
755,
724,
842,
928,
695,
657,
607,
591,
542,
557,
578,
499,
487,
448,
476,
398,
411,
382,
332,
336,
342,
328,
329,
318,
288,
286,
263,
223,
246,
260,
217,
199,
194,
166,
156,
168,
163,
167,
140,
106,
121,
107,
132,
102,
91,
72,
84,
60,
55,
63,
50,
45,
48,
26,
32,
44,
28,
24,
17,
14,
11,
4,
7,
5,
1,
0,
0,
0,
1,
0,
1,
0,
0,
0,
0,
1,
0,
0,
0,
1,
0,
0,
0,
0,
0,
0,
1,
1,
0,
0,
0,
0,
0,
0,
0,
0,
0,
0,
0,
0,
0,
0,
0,
0,
0,
0,
0,
0,
0,
0,
0,
0,
0,
0,
0,
0,
0,
0,
0,
0,
0,
0,
0,
0,
0,
0,
0,
0,
0,
0,
0,
0,
0,
0,
0,
0,
0,
0,
0,
0,
0,
0,
0,
0,
0,
0,
0,
0,
0,
0,
0,
0,
0,
0,
0,
0,
0,
0,
0,
0,
0,
0,
0,
0,
0,
0,
0,
0,
0,
0,
0,
0,
0,
0,
0,
0,
0,
0,
0,
0,
0,
0,
0,
0,
0,
0,
0,
0,
0,
0,
0,
0,
0,
0,
0,
0,
0,
0,
0,
0,
0,
0,
0,
0,
0,
0,
0,
0,
0,
0,
0,
0,
0,
0,
0,
0,
0,
0,
0,
0,
0,
0,
0,
0,
0,
0,
0,
0,
0,
0,
0,
0,
0,
0,
0,
0,
0,
0,
0,
0,
0,
0,
0,
0,
0,
0,
0,
0,
0,
0,
0,
#ENDOFDATA   :