Folder: spex_quant/N132962/Quantification/15 keV/Mengason MM2 (part 9)

File: MMM2 Spessartine[4][4].msa
#FORMAT      : EMSA/MAS Spectral Data File
#VERSION     : 1.0
#TITLE       : MMM2 Spessartine[4][all]
#DATE        : 29-SEP-2025
#TIME        : 00:49
#OWNER       : Unknown
#NPOINTS     : 4096
#NCOLUMNS    : 1
#XUNITS      : eV
#YUNITS      : counts
#DATATYPE    : Y
#XPERCHAN    : 9.99778
#OFFSET      : 1.69135
#BEAMKV      : 15
#SIGNALTYPE  : EDS
#ELEVANGLE   : 35
#AZIMANGLE   : 0
#LIVETIME    : 240.313
#REALTIME    : 256.744
#PROBECUR    : 1.21186
#TAUWIND     : 0
#TDEADLYR    : 0
#TACTLYR     : 0.045
#TALWIND     : 0.025
#CHOFFSET    : 0.0
#XLABEL      : Energy (eV)
#YLABEL      : Counts
#XPOSITION   : -19.73243
#YPOSITION   : 6.8014
#ZPOSITION   : 34.11879
#EDSDET      : SD
##SPECIMEN   : MMM2 Spessartine[4][all]
##DET_HASH   : 12273538-fd48-a23f-0a19-f1e6fa85caef
##CALIB_HASH : 6abaa72c-aa41-8738-0be9-f592914732f3
##WORKING    : 15.0 mm
##DET_NAME   : EDAX All
##DET_MODE   : MediumLE
#SPECTRUM    :
32,
320,
13726,
11704,
96179,
7686,
3175,
3924,
4308,
4958,
10279,
32313,
38334,
18924,
3622,
3329,
3579,
3285,
3037,
2906,
2815,
2626,
2541,
2623,
2341,
2457,
2668,
2233,
2043,
2060,
1898,
1786,
1712,
1628,
1480,
1476,
1447,
1393,
1303,
1307,
1209,
2289,
40140,
4269,
1109,
1389,
5590,
2322,
819,
823,
836,
806,
689,
727,
677,
675,
634,
645,
578,
571,
562,
511,
505,
495,
472,
434,
409,
375,
407,
387,
326,
341,
323,
303,
296,
256,
257,
232,
211,
205,
205,
181,
189,
150,
163,
144,
126,
118,
137,
99,
105,
89,
96,
74,
82,
76,
58,
52,
38,
55,
30,
27,
29,
16,
16,
9,
6,
2,
1,
2,
1,
0,
0,
0,
1,
0,
0,
0,
0,
1,
1,
0,
0,
0,
0,
0,
0,
0,
0,
0,
0,
0,
0,
0,
0,
1,
0,
0,
0,
1,
0,
0,
0,
0,
0,
0,
0,
0,
0,
0,
0,
0,
0,
0,
0,
0,
0,
0,
0,
0,
0,
0,
0,
0,
0,
0,
0,
0,
0,
0,
0,
0,
0,
1,
0,
0,
0,
0,
0,
0,
0,
0,
1,
0,
0,
0,
0,
0,
0,
0,
0,
0,
0,
0,
0,
0,
0,
0,
0,
0,
0,
0,
0,
0,
0,
0,
0,
0,
0,
0,
0,
0,
0,
0,
0,
0,
0,
0,
0,
0,
0,
0,
0,
0,
0,
0,
0,
0,
0,
0,
0,
0,
0,
0,
0,
0,
0,
0,
0,
0,
0,
0,
0,
0,
0,
0,
0,
0,
0,
0,
0,
0,
0,
0,
0,
0,
0,
0,
0,
0,
0,
0,
0,
0,
0,
0,
0,
0,
0,
0,
0,
0,
0,
0,
0,
0,
0,
0,
0,
0,
0,
0,
0,
0,
0,
0,
0,
0,
0,
0,
0,
0,
0,
0,
#ENDOFDATA   :

File: MMM2 Spessartine[5][4].msa
#FORMAT      : EMSA/MAS Spectral Data File
#VERSION     : 1.0
#TITLE       : MMM2 Spessartine[5][all]
#DATE        : 29-SEP-2025
#TIME        : 00:50
#OWNER       : Unknown
#NPOINTS     : 4096
#NCOLUMNS    : 1
#XUNITS      : eV
#YUNITS      : counts
#DATATYPE    : Y
#XPERCHAN    : 9.99778
#OFFSET      : 1.69135
#BEAMKV      : 15
#SIGNALTYPE  : EDS
#ELEVANGLE   : 35
#AZIMANGLE   : 0
#LIVETIME    : 240.297
#REALTIME    : 256.745
#PROBECUR    : 1.21186
#TAUWIND     : 0
#TDEADLYR    : 0
#TACTLYR     : 0.045
#TALWIND     : 0.025
#CHOFFSET    : 0.0
#XLABEL      : Energy (eV)
#YLABEL      : Counts
#XPOSITION   : -19.70445
#YPOSITION   : 6.73006
#ZPOSITION   : 34.11879
#EDSDET      : SD
##SPECIMEN   : MMM2 Spessartine[5][all]
##DET_HASH   : 12273538-fd48-a23f-0a19-f1e6fa85caef
##CALIB_HASH : 6abaa72c-aa41-8738-0be9-f592914732f3
##WORKING    : 15.0 mm
##DET_NAME   : EDAX All
##DET_MODE   : MediumLE
#SPECTRUM    :
28,
282,
13490,
11623,
96085,
7796,
3299,
3989,
4362,
4966,
10228,
32281,
38089,
19184,
3659,
3330,
3587,
3218,
2991,
2817,
2838,
2710,
2642,
2644,
2425,
2410,
2711,
2188,
2036,
2026,
1898,
1659,
1586,
1601,
1591,
1547,
1477,
1400,
1341,
1234,
1254,
2320,
39913,
4274,
1111,
1357,
5373,
2367,
811,
776,
884,
795,
722,
741,
717,
630,
596,
571,
550,
525,
526,
474,
466,
449,
442,
422,
419,
391,
396,
359,
311,
362,
305,
323,
280,
243,
235,
230,
201,
222,
202,
197,
180,
176,
173,
140,
139,
131,
126,
104,
91,
89,
84,
76,
61,
54,
63,
40,
49,
32,
23,
26,
23,
15,
16,
7,
3,
4,
0,
0,
1,
0,
0,
0,
0,
1,
1,
0,
0,
0,
0,
0,
0,
2,
0,
0,
0,
0,
0,
0,
0,
1,
0,
0,
0,
2,
0,
0,
0,
0,
0,
0,
0,
0,
1,
0,
0,
0,
0,
0,
0,
0,
0,
0,
0,
0,
1,
0,
0,
0,
0,
0,
0,
0,
0,
0,
0,
0,
0,
0,
0,
0,
0,
0,
0,
0,
0,
0,
0,
0,
0,
0,
0,
0,
0,
0,
0,
0,
0,
0,
0,
0,
0,
0,
0,
0,
0,
0,
0,
0,
0,
0,
0,
0,
0,
0,
0,
0,
0,
0,
0,
0,
0,
0,
0,
0,
0,
0,
0,
0,
0,
0,
0,
0,
0,
0,
0,
0,
0,
0,
0,
0,
0,
0,
0,
0,
0,
0,
0,
0,
0,
0,
0,
0,
0,
0,
0,
0,
0,
0,
0,
0,
0,
0,
0,
0,
0,
0,
0,
0,
0,
0,
0,
0,
0,
0,
0,
0,
0,
0,
0,
0,
0,
0,
0,
0,
0,
0,
0,
0,
0,
0,
0,
0,
0,
0,
0,
0,
0,
0,
0,
0,
0,
0,
#ENDOFDATA   :

File: MMM2 Spessartine[6][4].msa
#FORMAT      : EMSA/MAS Spectral Data File
#VERSION     : 1.0
#TITLE       : MMM2 Spessartine[6][all]
#DATE        : 29-SEP-2025
#TIME        : 00:51
#OWNER       : Unknown
#NPOINTS     : 4096
#NCOLUMNS    : 1
#XUNITS      : eV
#YUNITS      : counts
#DATATYPE    : Y
#XPERCHAN    : 9.99778
#OFFSET      : 1.69135
#BEAMKV      : 15
#SIGNALTYPE  : EDS
#ELEVANGLE   : 35
#AZIMANGLE   : 0
#LIVETIME    : 240.359
#REALTIME    : 256.804
#PROBECUR    : 1.21186
#TAUWIND     : 0
#TDEADLYR    : 0
#TACTLYR     : 0.045
#TALWIND     : 0.025
#CHOFFSET    : 0.0
#XLABEL      : Energy (eV)
#YLABEL      : Counts
#XPOSITION   : -19.71425
#YPOSITION   : 6.69259
#ZPOSITION   : 34.11879
#EDSDET      : SD
##SPECIMEN   : MMM2 Spessartine[6][all]
##DET_HASH   : 12273538-fd48-a23f-0a19-f1e6fa85caef
##CALIB_HASH : 6abaa72c-aa41-8738-0be9-f592914732f3
##WORKING    : 15.0 mm
##DET_NAME   : EDAX All
##DET_MODE   : MediumLE
#SPECTRUM    :
19,
279,
13648,
11708,
96768,
7802,
3240,
3938,
4476,
4977,
10228,
32349,
37943,
18964,
3594,
3277,
3647,
3176,
2986,
2864,
2794,
2779,
2574,
2601,
2397,
2421,
2620,
2208,
2055,
1977,
1977,
1743,
1731,
1608,
1590,
1491,
1458,
1372,
1308,
1276,
1269,
2286,
40349,
4242,
1054,
1465,
5633,
2258,
816,
812,
895,
747,
747,
751,
658,
649,
617,
580,
547,
563,
560,
520,
462,
437,
422,
464,
397,
397,
384,
356,
342,
334,
362,
297,
278,
267,
247,
254,
229,
191,
212,
182,
170,
164,
153,
144,
141,
116,
119,
101,
94,
80,
83,
70,
84,
65,
53,
59,
45,
47,
43,
28,
34,
24,
11,
6,
6,
1,
1,
0,
1,
1,
0,
0,
0,
0,
0,
0,
0,
1,
1,
0,
0,
0,
0,
1,
0,
0,
0,
1,
0,
0,
0,
0,
0,
0,
0,
0,
0,
0,
0,
1,
0,
1,
0,
0,
0,
0,
0,
0,
0,
0,
0,
0,
0,
0,
0,
0,
0,
0,
0,
0,
0,
0,
0,
0,
0,
0,
0,
0,
0,
0,
0,
0,
0,
0,
0,
0,
0,
0,
0,
0,
0,
0,
0,
0,
0,
0,
0,
0,
0,
0,
0,
0,
0,
0,
0,
0,
0,
0,
0,
0,
0,
0,
0,
0,
0,
0,
0,
0,
0,
0,
0,
0,
0,
0,
0,
0,
0,
0,
0,
0,
0,
0,
0,
0,
0,
0,
0,
0,
0,
0,
0,
0,
0,
0,
0,
0,
0,
0,
0,
0,
0,
0,
0,
0,
0,
0,
0,
0,
0,
0,
0,
0,
0,
0,
0,
0,
0,
0,
0,
0,
0,
0,
0,
0,
0,
0,
0,
0,
0,
0,
0,
0,
0,
0,
0,
0,
0,
0,
0,
0,
0,
0,
0,
0,
0,
0,
0,
0,
0,
0,
0,
0,
#ENDOFDATA   :

File: MMM2 Spessartine[7][4].msa
#FORMAT      : EMSA/MAS Spectral Data File
#VERSION     : 1.0
#TITLE       : MMM2 Spessartine[7][all]
#DATE        : 29-SEP-2025
#TIME        : 00:52
#OWNER       : Unknown
#NPOINTS     : 4096
#NCOLUMNS    : 1
#XUNITS      : eV
#YUNITS      : counts
#DATATYPE    : Y
#XPERCHAN    : 9.99778
#OFFSET      : 1.69135
#BEAMKV      : 15
#SIGNALTYPE  : EDS
#ELEVANGLE   : 35
#AZIMANGLE   : 0
#LIVETIME    : 240.348
#REALTIME    : 256.807
#PROBECUR    : 1.21186
#TAUWIND     : 0
#TDEADLYR    : 0
#TACTLYR     : 0.045
#TALWIND     : 0.025
#CHOFFSET    : 0.0
#XLABEL      : Energy (eV)
#YLABEL      : Counts
#XPOSITION   : -19.72201
#YPOSITION   : 6.70947
#ZPOSITION   : 34.11879
#EDSDET      : SD
##SPECIMEN   : MMM2 Spessartine[7][all]
##DET_HASH   : 12273538-fd48-a23f-0a19-f1e6fa85caef
##CALIB_HASH : 6abaa72c-aa41-8738-0be9-f592914732f3
##WORKING    : 15.0 mm
##DET_NAME   : EDAX All
##DET_MODE   : MediumLE
#SPECTRUM    :
19,
303,
13477,
11842,
96682,
7639,
3227,
3951,
4344,
4914,
10156,
32227,
38150,
18948,
3651,
3369,
3612,
3202,
3036,
2981,
2845,
2703,
2546,
2691,
2482,
2420,
2630,
2272,
2042,
2051,
1949,
1730,
1676,
1675,
1618,
1423,
1450,
1383,
1272,
1257,
1230,
2249,
39768,
4225,
1077,
1475,
5642,
2246,
828,
796,
867,
828,
757,
730,
707,
638,
606,
584,
554,
574,
509,
536,
492,
467,
425,
420,
426,
386,
397,
348,
349,
334,
319,
319,
295,
276,
249,
229,
267,
189,
202,
192,
189,
200,
160,
155,
112,
136,
102,
106,
105,
91,
80,
77,
75,
60,
50,
47,
48,
34,
38,
26,
21,
20,
12,
9,
7,
3,
2,
1,
0,
0,
0,
1,
1,
0,
0,
0,
0,
0,
0,
0,
0,
0,
1,
0,
0,
1,
0,
0,
0,
0,
0,
0,
0,
0,
0,
0,
0,
1,
0,
0,
0,
0,
0,
0,
0,
0,
0,
0,
0,
0,
1,
0,
0,
0,
0,
0,
0,
0,
0,
0,
0,
0,
0,
0,
0,
0,
0,
0,
0,
0,
0,
0,
0,
0,
0,
0,
0,
0,
0,
0,
0,
0,
0,
0,
0,
0,
0,
0,
0,
0,
0,
0,
0,
0,
0,
0,
0,
0,
0,
0,
0,
0,
0,
0,
0,
0,
0,
0,
0,
0,
0,
0,
0,
0,
0,
0,
0,
0,
0,
0,
0,
0,
0,
0,
0,
0,
0,
0,
0,
0,
0,
0,
0,
0,
0,
0,
0,
0,
0,
0,
0,
0,
0,
0,
0,
0,
0,
0,
0,
0,
0,
0,
0,
0,
0,
0,
0,
0,
0,
0,
0,
0,
0,
0,
0,
0,
0,
0,
0,
0,
0,
0,
0,
0,
0,
0,
0,
0,
0,
0,
0,
0,
0,
0,
0,
0,
0,
0,
0,
0,
0,
0,
#ENDOFDATA   :

File: MMM2 Sphene[0][4].msa
#FORMAT      : EMSA/MAS Spectral Data File
#VERSION     : 1.0
#TITLE       : MMM2 Sphene[0][all]
#DATE        : 28-SEP-2025
#TIME        : 21:59
#OWNER       : Unknown
#NPOINTS     : 4096
#NCOLUMNS    : 1
#XUNITS      : eV
#YUNITS      : counts
#DATATYPE    : Y
#XPERCHAN    : 9.99778
#OFFSET      : 1.69135
#BEAMKV      : 15
#SIGNALTYPE  : EDS
#ELEVANGLE   : 35
#AZIMANGLE   : 0
#LIVETIME    : 240.124
#REALTIME    : 253.353
#PROBECUR    : 1.21223
#TAUWIND     : 0
#TDEADLYR    : 0
#TACTLYR     : 0.045
#TALWIND     : 0.025
#CHOFFSET    : 0.0
#XLABEL      : Energy (eV)
#YLABEL      : Counts
#XPOSITION   : -11.19725
#YPOSITION   : -1.86227
#ZPOSITION   : 34.11879
#EDSDET      : SD
##SPECIMEN   : MMM2 Sphene[0][all]
##DET_HASH   : 12273538-fd48-a23f-0a19-f1e6fa85caef
##CALIB_HASH : 6abaa72c-aa41-8738-0be9-f592914732f3
##WORKING    : 15.0 mm
##DET_NAME   : EDAX All
##DET_MODE   : MediumLE
#SPECTRUM    :
22,
292,
19265,
12187,
32476,
3276,
3267,
3977,
4483,
4804,
5392,
7322,
37100,
18670,
4394,
3570,
3793,
3242,
3091,
2958,
3067,
2718,
2604,
2651,
2337,
2667,
39151,
13841,
3521,
7409,
1767,
2159,
41085,
5667,
1676,
6559,
2128,
1248,
1163,
1235,
1095,
1017,
984,
1010,
970,
1069,
1244,
820,
803,
798,
828,
750,
687,
681,
651,
607,
567,
604,
532,
540,
534,
511,
495,
460,
407,
461,
412,
369,
341,
374,
324,
300,
298,
284,
262,
241,
258,
217,
211,
218,
187,
167,
163,
167,
140,
144,
130,
117,
120,
104,
101,
84,
94,
70,
68,
55,
46,
51,
46,
35,
32,
24,
13,
12,
15,
9,
8,
0,
0,
0,
0,
0,
1,
1,
0,
0,
0,
0,
0,
0,
0,
0,
0,
0,
0,
0,
0,
1,
0,
1,
0,
0,
1,
0,
0,
0,
0,
0,
0,
0,
0,
0,
0,
0,
0,
0,
0,
0,
0,
0,
0,
0,
0,
0,
0,
0,
0,
0,
0,
0,
0,
0,
0,
0,
0,
0,
0,
0,
0,
0,
0,
0,
0,
0,
0,
0,
0,
0,
0,
0,
0,
0,
0,
0,
0,
0,
0,
0,
0,
0,
0,
0,
0,
0,
0,
0,
0,
0,
0,
0,
0,
0,
0,
0,
0,
0,
0,
0,
0,
0,
0,
0,
0,
0,
0,
0,
0,
0,
0,
0,
0,
0,
0,
0,
0,
0,
0,
0,
0,
0,
0,
0,
0,
0,
0,
0,
0,
0,
0,
0,
0,
0,
0,
0,
0,
0,
0,
0,
0,
0,
0,
0,
0,
0,
0,
0,
0,
0,
0,
0,
0,
0,
0,
0,
0,
0,
0,
0,
0,
0,
0,
0,
0,
0,
0,
0,
0,
0,
0,
0,
0,
0,
0,
0,
0,
0,
0,
0,
0,
0,
0,
0,
0,
0,
#ENDOFDATA   :

File: MMM2 Sphene[1][4].msa
#FORMAT      : EMSA/MAS Spectral Data File
#VERSION     : 1.0
#TITLE       : MMM2 Sphene[1][all]
#DATE        : 28-SEP-2025
#TIME        : 22:00
#OWNER       : Unknown
#NPOINTS     : 4096
#NCOLUMNS    : 1
#XUNITS      : eV
#YUNITS      : counts
#DATATYPE    : Y
#XPERCHAN    : 9.99778
#OFFSET      : 1.69135
#BEAMKV      : 15
#SIGNALTYPE  : EDS
#ELEVANGLE   : 35
#AZIMANGLE   : 0
#LIVETIME    : 240.127
#REALTIME    : 253.3473
#PROBECUR    : 1.21223
#TAUWIND     : 0
#TDEADLYR    : 0
#TACTLYR     : 0.045
#TALWIND     : 0.025
#CHOFFSET    : 0.0
#XLABEL      : Energy (eV)
#YLABEL      : Counts
#XPOSITION   : -11.18987
#YPOSITION   : -1.89398
#ZPOSITION   : 34.11879
#EDSDET      : SD
##SPECIMEN   : MMM2 Sphene[1][all]
##DET_HASH   : 12273538-fd48-a23f-0a19-f1e6fa85caef
##CALIB_HASH : 6abaa72c-aa41-8738-0be9-f592914732f3
##WORKING    : 15.0 mm
##DET_NAME   : EDAX All
##DET_MODE   : MediumLE
#SPECTRUM    :
20,
268,
19181,
12061,
32503,
3253,
3363,
3765,
4517,
4889,
5356,
7120,
37081,
18649,
4470,
3602,
3672,
3162,
3084,
2965,
3084,
2672,
2555,
2547,
2322,
2687,
39562,
13756,
3537,
7508,
1800,
2136,
41069,
5660,
1563,
6591,
2108,
1248,
1197,
1262,
1083,
1020,
1070,
976,
931,
999,
1275,
827,
802,
800,
848,
688,
721,
736,
685,
623,
599,
539,
538,
570,
486,
490,
447,
395,
395,
421,
406,
395,
376,
352,
340,
257,
308,
300,
250,
248,
222,
235,
206,
185,
187,
157,
171,
168,
137,
141,
109,
125,
114,
105,
101,
90,
77,
69,
73,
65,
66,
36,
51,
36,
27,
20,
16,
17,
17,
7,
6,
1,
2,
0,
1,
0,
0,
2,
1,
0,
0,
0,
1,
0,
0,
0,
1,
0,
0,
1,
0,
0,
0,
0,
0,
0,
0,
0,
0,
1,
0,
0,
0,
0,
0,
0,
0,
0,
0,
1,
0,
0,
0,
0,
0,
0,
0,
0,
0,
0,
0,
0,
0,
0,
0,
0,
0,
0,
0,
0,
0,
0,
0,
0,
0,
0,
0,
0,
0,
0,
0,
0,
0,
0,
0,
0,
0,
0,
0,
0,
0,
0,
0,
0,
0,
0,
0,
0,
0,
0,
0,
0,
0,
0,
0,
0,
0,
0,
0,
0,
0,
0,
0,
0,
0,
0,
0,
0,
0,
0,
0,
0,
0,
0,
0,
0,
0,
0,
0,
0,
0,
0,
0,
0,
0,
0,
0,
0,
0,
0,
0,
0,
0,
0,
0,
0,
0,
0,
0,
0,
0,
0,
0,
0,
0,
0,
0,
0,
0,
0,
0,
0,
0,
0,
0,
0,
0,
0,
0,
0,
0,
0,
0,
0,
0,
0,
0,
0,
0,
0,
0,
0,
0,
0,
0,
0,
0,
0,
0,
0,
0,
0,
0,
0,
0,
0,
0,
0,
#ENDOFDATA   :

File: MMM2 Sphene[2][4].msa
#FORMAT      : EMSA/MAS Spectral Data File
#VERSION     : 1.0
#TITLE       : MMM2 Sphene[2][all]
#DATE        : 28-SEP-2025
#TIME        : 22:01
#OWNER       : Unknown
#NPOINTS     : 4096
#NCOLUMNS    : 1
#XUNITS      : eV
#YUNITS      : counts
#DATATYPE    : Y
#XPERCHAN    : 9.99778
#OFFSET      : 1.69135
#BEAMKV      : 15
#SIGNALTYPE  : EDS
#ELEVANGLE   : 35
#AZIMANGLE   : 0
#LIVETIME    : 240.121
#REALTIME    : 253.3517
#PROBECUR    : 1.21223
#TAUWIND     : 0
#TDEADLYR    : 0
#TACTLYR     : 0.045
#TALWIND     : 0.025
#CHOFFSET    : 0.0
#XLABEL      : Energy (eV)
#YLABEL      : Counts
#XPOSITION   : -11.19295
#YPOSITION   : -1.8478
#ZPOSITION   : 34.11879
#EDSDET      : SD
##SPECIMEN   : MMM2 Sphene[2][all]
##DET_HASH   : 12273538-fd48-a23f-0a19-f1e6fa85caef
##CALIB_HASH : 6abaa72c-aa41-8738-0be9-f592914732f3
##WORKING    : 15.0 mm
##DET_NAME   : EDAX All
##DET_MODE   : MediumLE
#SPECTRUM    :
21,
268,
19219,
12253,
32712,
3265,
3493,
4046,
4484,
4890,
5604,
7388,
36926,
18434,
4361,
3548,
3837,
3299,
3117,
2996,
3013,
2655,
2556,
2557,
2339,
2734,
39479,
13726,
3582,
7291,
1771,
2006,
41575,
5827,
1632,
6617,
2149,
1191,
1188,
1233,
1124,
1007,
1050,
964,
938,
1025,
1180,
819,
728,
798,
836,
734,
672,
760,
640,
605,
571,
588,
585,
525,
555,
515,
459,
424,
438,
404,
370,
358,
329,
340,
352,
346,
304,
285,
306,
254,
211,
232,
210,
213,
177,
180,
159,
153,
143,
125,
128,
135,
109,
85,
82,
77,
76,
78,
79,
61,
54,
52,
35,
47,
20,
29,
21,
15,
13,
10,
3,
1,
0,
3,
1,
0,
1,
0,
1,
0,
1,
0,
0,
1,
0,
0,
0,
0,
0,
0,
0,
1,
0,
0,
0,
0,
0,
0,
0,
0,
0,
0,
0,
0,
0,
0,
0,
0,
0,
0,
0,
0,
0,
0,
0,
0,
0,
0,
0,
0,
0,
0,
0,
0,
0,
0,
0,
0,
0,
0,
0,
0,
0,
0,
0,
0,
0,
0,
0,
0,
0,
0,
0,
0,
0,
0,
0,
0,
0,
0,
0,
0,
0,
0,
0,
0,
0,
0,
0,
0,
0,
0,
0,
0,
0,
0,
0,
0,
0,
0,
0,
0,
0,
0,
0,
0,
0,
0,
0,
0,
0,
0,
0,
0,
0,
0,
0,
0,
0,
0,
0,
0,
0,
0,
0,
0,
0,
0,
0,
0,
0,
0,
0,
0,
0,
0,
0,
0,
0,
0,
0,
0,
0,
0,
0,
0,
0,
0,
0,
0,
0,
0,
0,
0,
0,
0,
0,
0,
0,
0,
0,
0,
0,
0,
0,
0,
0,
0,
0,
0,
0,
0,
0,
0,
0,
0,
0,
0,
0,
0,
0,
0,
0,
0,
0,
0,
0,
0,
#ENDOFDATA   :

File: MMM2 Sphene[3][4].msa
#FORMAT      : EMSA/MAS Spectral Data File
#VERSION     : 1.0
#TITLE       : MMM2 Sphene[3][all]
#DATE        : 28-SEP-2025
#TIME        : 22:02
#OWNER       : Unknown
#NPOINTS     : 4096
#NCOLUMNS    : 1
#XUNITS      : eV
#YUNITS      : counts
#DATATYPE    : Y
#XPERCHAN    : 9.99778
#OFFSET      : 1.69135
#BEAMKV      : 15
#SIGNALTYPE  : EDS
#ELEVANGLE   : 35
#AZIMANGLE   : 0
#LIVETIME    : 240.127
#REALTIME    : 253.361
#PROBECUR    : 1.21223
#TAUWIND     : 0
#TDEADLYR    : 0
#TACTLYR     : 0.045
#TALWIND     : 0.025
#CHOFFSET    : 0.0
#XLABEL      : Energy (eV)
#YLABEL      : Counts
#XPOSITION   : -11.17152
#YPOSITION   : -1.88372
#ZPOSITION   : 34.11879
#EDSDET      : SD
##SPECIMEN   : MMM2 Sphene[3][all]
##DET_HASH   : 12273538-fd48-a23f-0a19-f1e6fa85caef
##CALIB_HASH : 6abaa72c-aa41-8738-0be9-f592914732f3
##WORKING    : 15.0 mm
##DET_NAME   : EDAX All
##DET_MODE   : MediumLE
#SPECTRUM    :
25,
267,
19179,
12241,
32352,
3362,
3269,
4003,
4546,
4837,
5468,
7250,
37347,
18809,
4385,
3552,
3594,
3197,
3069,
3016,
3098,
2806,
2581,
2514,
2333,
2738,
39534,
13794,
3606,
7271,
1764,
2155,
41431,
5564,
1508,
6580,
2145,
1252,
1153,
1292,
1108,
1107,
1064,
1016,
982,
1031,
1272,
893,
845,
757,
862,
758,
665,
688,
682,
635,
565,
573,
564,
547,
501,
492,
452,
442,
426,
385,
407,
382,
346,
340,
330,
286,
293,
299,
246,
237,
242,
209,
233,
209,
203,
185,
168,
159,
131,
126,
133,
121,
126,
93,
99,
91,
84,
79,
69,
63,
44,
38,
41,
27,
36,
32,
19,
18,
11,
12,
7,
3,
1,
0,
0,
0,
1,
0,
0,
1,
0,
0,
1,
0,
0,
0,
0,
0,
1,
0,
0,
0,
0,
0,
0,
0,
0,
0,
0,
0,
0,
0,
0,
1,
0,
0,
0,
0,
0,
0,
0,
0,
0,
0,
1,
0,
0,
0,
0,
0,
0,
0,
0,
0,
1,
0,
0,
0,
0,
1,
0,
0,
0,
0,
0,
0,
0,
0,
0,
0,
0,
0,
0,
0,
0,
0,
0,
0,
0,
0,
0,
0,
0,
0,
0,
0,
0,
0,
0,
0,
0,
0,
0,
0,
0,
0,
0,
0,
0,
0,
0,
0,
0,
0,
0,
0,
0,
0,
0,
0,
0,
0,
0,
0,
0,
0,
0,
0,
0,
0,
0,
0,
0,
0,
0,
0,
0,
0,
0,
0,
0,
0,
0,
0,
0,
0,
0,
0,
0,
0,
0,
0,
0,
0,
0,
0,
0,
0,
0,
0,
0,
0,
0,
0,
0,
0,
0,
0,
0,
0,
0,
0,
0,
0,
0,
0,
0,
0,
0,
0,
0,
0,
0,
0,
0,
0,
0,
0,
0,
0,
0,
0,
0,
0,
0,
0,
0,
0,
#ENDOFDATA   :

File: MMM2 Sphene[4][4].msa
#FORMAT      : EMSA/MAS Spectral Data File
#VERSION     : 1.0
#TITLE       : MMM2 Sphene[4][all]
#DATE        : 28-SEP-2025
#TIME        : 22:03
#OWNER       : Unknown
#NPOINTS     : 4096
#NCOLUMNS    : 1
#XUNITS      : eV
#YUNITS      : counts
#DATATYPE    : Y
#XPERCHAN    : 9.99778
#OFFSET      : 1.69135
#BEAMKV      : 15
#SIGNALTYPE  : EDS
#ELEVANGLE   : 35
#AZIMANGLE   : 0
#LIVETIME    : 240.139
#REALTIME    : 253.351
#PROBECUR    : 1.21223
#TAUWIND     : 0
#TDEADLYR    : 0
#TACTLYR     : 0.045
#TALWIND     : 0.025
#CHOFFSET    : 0.0
#XLABEL      : Energy (eV)
#YLABEL      : Counts
#XPOSITION   : -11.21177
#YPOSITION   : -1.85433
#ZPOSITION   : 34.11879
#EDSDET      : SD
##SPECIMEN   : MMM2 Sphene[4][all]
##DET_HASH   : 12273538-fd48-a23f-0a19-f1e6fa85caef
##CALIB_HASH : 6abaa72c-aa41-8738-0be9-f592914732f3
##WORKING    : 15.0 mm
##DET_NAME   : EDAX All
##DET_MODE   : MediumLE
#SPECTRUM    :
24,
281,
19204,
11985,
32188,
3432,
3410,
3876,
4394,
4908,
5446,
7375,
36909,
18695,
4303,
3564,
3766,
3216,
3104,
3002,
3098,
2758,
2608,
2523,
2342,
2718,
39716,
13664,
3482,
7284,
1747,
2086,
41557,
5560,
1631,
6661,
2255,
1214,
1170,
1215,
1076,
1058,
1013,
908,
973,
1026,
1201,
891,
774,
794,
755,
694,
672,
671,
650,
610,
614,
583,
543,
559,
507,
487,
469,
432,
468,
384,
401,
401,
374,
360,
375,
313,
259,
285,
304,
240,
256,
217,
235,
216,
206,
190,
169,
148,
142,
140,
122,
130,
118,
84,
89,
75,
74,
77,
70,
47,
51,
32,
36,
39,
28,
25,
17,
14,
9,
6,
5,
1,
1,
1,
2,
0,
0,
0,
1,
0,
2,
0,
0,
0,
0,
0,
0,
0,
0,
0,
0,
0,
0,
0,
0,
0,
0,
0,
0,
0,
0,
0,
0,
0,
0,
0,
0,
0,
0,
0,
0,
0,
0,
0,
0,
0,
0,
0,
0,
0,
0,
0,
0,
0,
0,
0,
0,
0,
0,
0,
0,
0,
0,
0,
0,
0,
0,
0,
0,
0,
0,
0,
0,
0,
0,
0,
0,
0,
0,
0,
0,
0,
0,
0,
0,
0,
0,
0,
0,
0,
0,
0,
0,
0,
0,
0,
0,
0,
0,
0,
0,
0,
0,
0,
0,
0,
0,
0,
0,
0,
0,
0,
0,
0,
0,
0,
0,
0,
0,
0,
0,
0,
0,
0,
0,
0,
0,
0,
0,
0,
0,
0,
0,
0,
0,
0,
0,
0,
0,
0,
0,
0,
0,
0,
0,
0,
0,
0,
0,
0,
0,
0,
0,
0,
0,
0,
0,
0,
0,
0,
0,
0,
0,
0,
0,
0,
0,
0,
0,
0,
0,
0,
0,
0,
0,
0,
0,
0,
0,
0,
0,
0,
0,
0,
0,
0,
0,
0,
#ENDOFDATA   :

File: MMM2 Sphene[5][4].msa
#FORMAT      : EMSA/MAS Spectral Data File
#VERSION     : 1.0
#TITLE       : MMM2 Sphene[5][all]
#DATE        : 28-SEP-2025
#TIME        : 22:04
#OWNER       : Unknown
#NPOINTS     : 4096
#NCOLUMNS    : 1
#XUNITS      : eV
#YUNITS      : counts
#DATATYPE    : Y
#XPERCHAN    : 9.99778
#OFFSET      : 1.69135
#BEAMKV      : 15
#SIGNALTYPE  : EDS
#ELEVANGLE   : 35
#AZIMANGLE   : 0
#LIVETIME    : 240.113
#REALTIME    : 253.345
#PROBECUR    : 1.21223
#TAUWIND     : 0
#TDEADLYR    : 0
#TACTLYR     : 0.045
#TALWIND     : 0.025
#CHOFFSET    : 0.0
#XLABEL      : Energy (eV)
#YLABEL      : Counts
#XPOSITION   : -11.18059
#YPOSITION   : -1.87705
#ZPOSITION   : 34.11879
#EDSDET      : SD
##SPECIMEN   : MMM2 Sphene[5][all]
##DET_HASH   : 12273538-fd48-a23f-0a19-f1e6fa85caef
##CALIB_HASH : 6abaa72c-aa41-8738-0be9-f592914732f3
##WORKING    : 15.0 mm
##DET_NAME   : EDAX All
##DET_MODE   : MediumLE
#SPECTRUM    :
24,
281,
19205,
12287,
32364,
3290,
3320,
3863,
4486,
4836,
5416,
7272,
37207,
18425,
4359,
3391,
3736,
3219,
3095,
2906,
3097,
2645,
2589,
2465,
2385,
2728,
39147,
13669,
3547,
7309,
1739,
2111,
41008,
5783,
1571,
6633,
2123,
1176,
1189,
1254,
1089,
1077,
1079,
1026,
992,
1059,
1184,
852,
889,
788,
838,
777,
696,
650,
644,
559,
572,
558,
545,
583,
517,
522,
439,
446,
444,
388,
419,
381,
359,
332,
329,
332,
277,
268,
272,
264,
247,
224,
213,
217,
182,
174,
170,
173,
151,
127,
130,
115,
108,
113,
104,
95,
78,
64,
65,
45,
51,
36,
33,
37,
29,
25,
20,
18,
16,
10,
2,
0,
1,
0,
0,
1,
1,
0,
0,
0,
0,
0,
0,
0,
0,
0,
0,
0,
1,
1,
0,
0,
0,
0,
0,
0,
0,
0,
0,
0,
0,
0,
0,
0,
0,
0,
0,
0,
0,
0,
0,
0,
0,
0,
0,
0,
0,
0,
0,
0,
0,
0,
0,
0,
0,
0,
0,
0,
0,
0,
0,
0,
0,
0,
1,
0,
0,
0,
0,
0,
0,
0,
0,
0,
0,
0,
0,
0,
0,
0,
0,
0,
0,
0,
0,
0,
0,
0,
0,
0,
0,
0,
0,
0,
0,
0,
0,
0,
0,
0,
0,
0,
0,
0,
0,
0,
0,
0,
0,
0,
0,
0,
0,
0,
0,
0,
0,
0,
0,
0,
0,
0,
0,
0,
0,
0,
0,
0,
0,
0,
0,
0,
0,
0,
0,
0,
0,
0,
0,
0,
0,
0,
0,
0,
0,
0,
0,
0,
0,
0,
0,
0,
0,
0,
0,
0,
0,
0,
0,
0,
0,
0,
0,
0,
0,
0,
0,
0,
0,
0,
0,
0,
0,
0,
0,
0,
0,
0,
0,
0,
0,
0,
0,
0,
0,
0,
0,
0,
#ENDOFDATA   :

File: MMM2 Sphene[6][4].msa
#FORMAT      : EMSA/MAS Spectral Data File
#VERSION     : 1.0
#TITLE       : MMM2 Sphene[6][all]
#DATE        : 28-SEP-2025
#TIME        : 22:05
#OWNER       : Unknown
#NPOINTS     : 4096
#NCOLUMNS    : 1
#XUNITS      : eV
#YUNITS      : counts
#DATATYPE    : Y
#XPERCHAN    : 9.99778
#OFFSET      : 1.69135
#BEAMKV      : 15
#SIGNALTYPE  : EDS
#ELEVANGLE   : 35
#AZIMANGLE   : 0
#LIVETIME    : 240.1239
#REALTIME    : 253.3563
#PROBECUR    : 1.21223
#TAUWIND     : 0
#TDEADLYR    : 0
#TACTLYR     : 0.045
#TALWIND     : 0.025
#CHOFFSET    : 0.0
#XLABEL      : Energy (eV)
#YLABEL      : Counts
#XPOSITION   : -11.21373
#YPOSITION   : -1.87516
#ZPOSITION   : 34.11879
#EDSDET      : SD
##SPECIMEN   : MMM2 Sphene[6][all]
##DET_HASH   : 12273538-fd48-a23f-0a19-f1e6fa85caef
##CALIB_HASH : 6abaa72c-aa41-8738-0be9-f592914732f3
##WORKING    : 15.0 mm
##DET_NAME   : EDAX All
##DET_MODE   : MediumLE
#SPECTRUM    :
24,
299,
19330,
11956,
32466,
3307,
3334,
3831,
4505,
4901,
5446,
7429,
37315,
18797,
4325,
3583,
3789,
3223,
3069,
2920,
3054,
2647,
2543,
2500,
2295,
2726,
39050,
13617,
3648,
7267,
1724,
2151,
41128,
5704,
1625,
6615,
2184,
1233,
1160,
1241,
1116,
1048,
1011,
1010,
978,
1052,
1126,
869,
758,
747,
785,
704,
695,
664,
631,
644,
586,
561,
570,
553,
500,
493,
465,
434,
449,
385,
366,
365,
350,
311,
298,
340,
289,
270,
271,
247,
226,
196,
226,
191,
197,
174,
188,
128,
148,
138,
137,
118,
115,
105,
82,
87,
71,
76,
71,
73,
52,
32,
49,
37,
25,
23,
16,
18,
11,
6,
4,
1,
0,
1,
0,
0,
0,
1,
0,
0,
0,
2,
1,
0,
0,
0,
0,
0,
1,
0,
0,
0,
0,
0,
0,
1,
0,
0,
0,
0,
0,
0,
1,
0,
0,
0,
0,
0,
0,
0,
0,
0,
0,
0,
0,
0,
0,
0,
0,
0,
0,
0,
0,
0,
0,
0,
0,
0,
0,
0,
0,
0,
0,
0,
0,
0,
0,
0,
0,
0,
0,
0,
0,
0,
0,
0,
0,
0,
0,
0,
0,
0,
0,
0,
0,
0,
0,
0,
0,
0,
0,
0,
0,
0,
0,
0,
0,
0,
0,
0,
0,
0,
0,
0,
0,
0,
0,
0,
0,
0,
0,
0,
0,
0,
0,
0,
0,
0,
0,
0,
0,
0,
0,
0,
0,
0,
0,
0,
0,
0,
0,
0,
0,
0,
0,
0,
0,
0,
0,
0,
0,
0,
0,
0,
0,
0,
0,
0,
0,
0,
0,
0,
0,
0,
0,
0,
0,
0,
0,
0,
0,
0,
0,
0,
0,
0,
0,
0,
0,
0,
0,
0,
0,
0,
0,
0,
0,
0,
0,
0,
0,
0,
0,
0,
0,
0,
0,
0,
#ENDOFDATA   :

File: MMM2 Sphene[7][4].msa
#FORMAT      : EMSA/MAS Spectral Data File
#VERSION     : 1.0
#TITLE       : MMM2 Sphene[7][all]
#DATE        : 28-SEP-2025
#TIME        : 22:06
#OWNER       : Unknown
#NPOINTS     : 4096
#NCOLUMNS    : 1
#XUNITS      : eV
#YUNITS      : counts
#DATATYPE    : Y
#XPERCHAN    : 9.99778
#OFFSET      : 1.69135
#BEAMKV      : 15
#SIGNALTYPE  : EDS
#ELEVANGLE   : 35
#AZIMANGLE   : 0
#LIVETIME    : 240.128
#REALTIME    : 253.353
#PROBECUR    : 1.21223
#TAUWIND     : 0
#TDEADLYR    : 0
#TACTLYR     : 0.045
#TALWIND     : 0.025
#CHOFFSET    : 0.0
#XLABEL      : Energy (eV)
#YLABEL      : Counts
#XPOSITION   : -11.20105
#YPOSITION   : -1.87133
#ZPOSITION   : 34.11879
#EDSDET      : SD
##SPECIMEN   : MMM2 Sphene[7][all]
##DET_HASH   : 12273538-fd48-a23f-0a19-f1e6fa85caef
##CALIB_HASH : 6abaa72c-aa41-8738-0be9-f592914732f3
##WORKING    : 15.0 mm
##DET_NAME   : EDAX All
##DET_MODE   : MediumLE
#SPECTRUM    :
20,
251,
19409,
12171,
32296,
3247,
3383,
3996,
4578,
4859,
5350,
7215,
37114,
18507,
4547,
3584,
3684,
3244,
3004,
2940,
3099,
2821,
2537,
2373,
2343,
2761,
39232,
13670,
3544,
7298,
1710,
2092,
41480,
5678,
1643,
6459,
2146,
1189,
1169,
1298,
1102,
1090,
1044,
981,
957,
1034,
1204,
870,
783,
812,
809,
709,
718,
647,
610,
620,
580,
532,
555,
539,
537,
468,
490,
429,
441,
399,
404,
381,
354,
332,
300,
296,
297,
288,
257,
275,
254,
229,
197,
189,
186,
186,
162,
160,
154,
152,
123,
131,
108,
106,
96,
95,
96,
64,
69,
55,
63,
42,
47,
42,
32,
24,
22,
21,
17,
6,
3,
1,
2,
1,
0,
0,
1,
1,
1,
0,
1,
0,
0,
0,
0,
0,
1,
0,
0,
0,
0,
0,
0,
1,
0,
0,
0,
0,
0,
0,
0,
0,
0,
0,
0,
0,
0,
0,
0,
0,
0,
0,
0,
0,
0,
0,
0,
0,
0,
0,
0,
0,
0,
0,
0,
0,
0,
0,
0,
0,
0,
0,
0,
0,
0,
0,
0,
0,
0,
0,
0,
0,
0,
0,
0,
0,
0,
0,
0,
0,
0,
0,
0,
0,
0,
0,
0,
0,
0,
0,
0,
0,
0,
0,
0,
0,
0,
0,
0,
0,
0,
0,
0,
0,
0,
0,
0,
0,
0,
0,
0,
0,
0,
0,
0,
0,
0,
0,
0,
0,
0,
0,
0,
0,
0,
0,
0,
0,
0,
0,
0,
0,
0,
0,
0,
0,
0,
0,
0,
0,
0,
0,
0,
0,
0,
0,
0,
0,
0,
0,
0,
0,
0,
0,
0,
0,
0,
0,
0,
0,
0,
0,
0,
0,
0,
0,
0,
0,
0,
0,
0,
0,
0,
0,
0,
0,
0,
0,
0,
0,
0,
0,
0,
0,
0,
0,
0,
0,
#ENDOFDATA   :