Folder: spex_quant/N132962/Quantification/15 keV/Mengason MM2 (part 6)

File: MMM2 Pyrite[4][4].msa
#FORMAT      : EMSA/MAS Spectral Data File
#VERSION     : 1.0
#TITLE       : MMM2 Pyrite[4][all]
#DATE        : 28-SEP-2025
#TIME        : 20:50
#OWNER       : Unknown
#NPOINTS     : 4096
#NCOLUMNS    : 1
#XUNITS      : eV
#YUNITS      : counts
#DATATYPE    : Y
#XPERCHAN    : 9.99778
#OFFSET      : 1.69135
#BEAMKV      : 15
#SIGNALTYPE  : EDS
#ELEVANGLE   : 35
#AZIMANGLE   : 0
#LIVETIME    : 240.162
#REALTIME    : 258.987
#PROBECUR    : 1.21333
#TAUWIND     : 0
#TDEADLYR    : 0
#TACTLYR     : 0.045
#TALWIND     : 0.025
#CHOFFSET    : 0.0
#XLABEL      : Energy (eV)
#YLABEL      : Counts
#XPOSITION   : -11.66347
#YPOSITION   : -4.38606
#ZPOSITION   : 34.11879
#EDSDET      : SD
##SPECIMEN   : MMM2 Pyrite[4][all]
##D2STDCMP   : Pyrite,(S:53.4528),(Fe:46.5472)
##DET_HASH   : 12273538-fd48-a23f-0a19-f1e6fa85caef
##CALIB_HASH : 6abaa72c-aa41-8738-0be9-f592914732f3
##WORKING    : 15.0 mm
##DET_NAME   : EDAX All
##DET_MODE   : MediumLE
#SPECTRUM    :
17,
1060,
14184,
3626,
18868,
85641,
4719,
4960,
5587,
6018,
6509,
6441,
6784,
6682,
6070,
6313,
92172,
70844,
12809,
3349,
3164,
3384,
3162,
2826,
2895,
2818,
2743,
2638,
2416,
2623,
2377,
2317,
2222,
2880,
2136,
2108,
1911,
1854,
1849,
1756,
1663,
1569,
1597,
1575,
1602,
12855,
37765,
1731,
1333,
1410,
5446,
3176,
1001,
959,
987,
944,
890,
805,
844,
790,
740,
739,
811,
679,
590,
605,
579,
598,
566,
531,
463,
479,
454,
430,
412,
360,
394,
335,
325,
359,
282,
295,
251,
261,
249,
231,
217,
193,
205,
181,
174,
151,
136,
120,
120,
109,
73,
106,
77,
62,
51,
49,
37,
24,
30,
5,
8,
2,
0,
1,
3,
3,
1,
0,
1,
0,
0,
1,
0,
0,
1,
0,
2,
1,
0,
0,
1,
0,
1,
1,
0,
1,
0,
0,
1,
1,
0,
0,
0,
0,
0,
1,
0,
0,
0,
1,
0,
0,
0,
1,
0,
0,
0,
0,
0,
0,
0,
0,
0,
0,
0,
0,
0,
0,
0,
0,
0,
0,
0,
0,
0,
0,
0,
0,
0,
0,
0,
0,
0,
0,
0,
0,
0,
0,
0,
0,
0,
0,
0,
0,
0,
0,
0,
0,
0,
0,
0,
0,
0,
0,
0,
0,
0,
0,
0,
0,
0,
0,
0,
0,
0,
0,
0,
0,
0,
0,
0,
0,
0,
0,
0,
0,
0,
0,
0,
0,
0,
0,
0,
0,
0,
0,
0,
0,
0,
0,
0,
0,
0,
0,
0,
0,
0,
0,
0,
0,
0,
0,
0,
0,
0,
0,
0,
0,
0,
0,
0,
0,
0,
0,
0,
0,
0,
0,
0,
0,
0,
0,
0,
0,
0,
0,
0,
0,
0,
0,
0,
0,
0,
0,
0,
0,
0,
0,
0,
0,
0,
0,
0,
0,
0,
0,
0,
0,
#ENDOFDATA   :

File: MMM2 Pyrite[5][4].msa
#FORMAT      : EMSA/MAS Spectral Data File
#VERSION     : 1.0
#TITLE       : MMM2 Pyrite[5][all]
#DATE        : 28-SEP-2025
#TIME        : 20:52
#OWNER       : Unknown
#NPOINTS     : 4096
#NCOLUMNS    : 1
#XUNITS      : eV
#YUNITS      : counts
#DATATYPE    : Y
#XPERCHAN    : 9.99778
#OFFSET      : 1.69135
#BEAMKV      : 15
#SIGNALTYPE  : EDS
#ELEVANGLE   : 35
#AZIMANGLE   : 0
#LIVETIME    : 240.173
#REALTIME    : 258.992
#PROBECUR    : 1.21333
#TAUWIND     : 0
#TDEADLYR    : 0
#TACTLYR     : 0.045
#TALWIND     : 0.025
#CHOFFSET    : 0.0
#XLABEL      : Energy (eV)
#YLABEL      : Counts
#XPOSITION   : -11.66239
#YPOSITION   : -4.39349
#ZPOSITION   : 34.11879
#EDSDET      : SD
##SPECIMEN   : MMM2 Pyrite[5][all]
##D2STDCMP   : Pyrite,(S:53.4528),(Fe:46.5472)
##DET_HASH   : 12273538-fd48-a23f-0a19-f1e6fa85caef
##CALIB_HASH : 6abaa72c-aa41-8738-0be9-f592914732f3
##WORKING    : 15.0 mm
##DET_NAME   : EDAX All
##DET_MODE   : MediumLE
#SPECTRUM    :
29,
1111,
14239,
3675,
18650,
85767,
4670,
4775,
5516,
6088,
6375,
6575,
6613,
6614,
5877,
6294,
92107,
70829,
12916,
3222,
3106,
3309,
3175,
3085,
2912,
2846,
2754,
2614,
2571,
2479,
2380,
2386,
2375,
2899,
2206,
1966,
1908,
1857,
1797,
1694,
1674,
1629,
1522,
1591,
1550,
13012,
37790,
1684,
1268,
1328,
5401,
3217,
1027,
1009,
974,
945,
907,
880,
812,
815,
752,
687,
805,
707,
650,
582,
576,
566,
563,
566,
519,
496,
476,
456,
430,
447,
413,
373,
341,
326,
341,
270,
289,
259,
250,
211,
216,
221,
160,
169,
160,
173,
131,
117,
99,
98,
84,
84,
79,
57,
46,
42,
40,
47,
26,
19,
7,
3,
1,
1,
2,
0,
1,
0,
1,
2,
1,
2,
0,
1,
1,
0,
0,
2,
0,
2,
0,
1,
1,
1,
0,
0,
0,
0,
0,
0,
0,
1,
0,
0,
0,
1,
0,
0,
0,
0,
0,
0,
0,
0,
0,
0,
0,
0,
0,
0,
0,
0,
0,
0,
0,
0,
0,
0,
0,
0,
0,
0,
0,
0,
0,
0,
0,
0,
0,
0,
0,
0,
0,
0,
0,
0,
0,
0,
0,
0,
0,
0,
0,
0,
0,
0,
0,
0,
0,
0,
0,
0,
0,
0,
0,
0,
0,
0,
0,
0,
0,
0,
0,
0,
0,
0,
0,
0,
0,
0,
0,
0,
0,
0,
0,
0,
0,
0,
0,
0,
0,
0,
0,
0,
0,
0,
0,
0,
0,
0,
0,
0,
0,
0,
0,
0,
0,
0,
0,
0,
0,
0,
0,
0,
0,
0,
0,
0,
0,
0,
0,
0,
0,
0,
0,
0,
0,
0,
0,
0,
0,
0,
0,
0,
0,
0,
0,
0,
0,
0,
0,
0,
0,
0,
0,
0,
0,
0,
0,
0,
0,
0,
0,
0,
0,
0,
0,
0,
#ENDOFDATA   :

File: MMM2 Pyrite[6][4].msa
#FORMAT      : EMSA/MAS Spectral Data File
#VERSION     : 1.0
#TITLE       : MMM2 Pyrite[6][all]
#DATE        : 28-SEP-2025
#TIME        : 20:53
#OWNER       : Unknown
#NPOINTS     : 4096
#NCOLUMNS    : 1
#XUNITS      : eV
#YUNITS      : counts
#DATATYPE    : Y
#XPERCHAN    : 9.99778
#OFFSET      : 1.69135
#BEAMKV      : 15
#SIGNALTYPE  : EDS
#ELEVANGLE   : 35
#AZIMANGLE   : 0
#LIVETIME    : 240.179
#REALTIME    : 258.991
#PROBECUR    : 1.21333
#TAUWIND     : 0
#TDEADLYR    : 0
#TACTLYR     : 0.045
#TALWIND     : 0.025
#CHOFFSET    : 0.0
#XLABEL      : Energy (eV)
#YLABEL      : Counts
#XPOSITION   : -11.68033
#YPOSITION   : -4.30169
#ZPOSITION   : 34.11879
#EDSDET      : SD
##SPECIMEN   : MMM2 Pyrite[6][all]
##D2STDCMP   : Pyrite,(S:53.4528),(Fe:46.5472)
##DET_HASH   : 12273538-fd48-a23f-0a19-f1e6fa85caef
##CALIB_HASH : 6abaa72c-aa41-8738-0be9-f592914732f3
##WORKING    : 15.0 mm
##DET_NAME   : EDAX All
##DET_MODE   : MediumLE
#SPECTRUM    :
32,
997,
14158,
3768,
19091,
84454,
4826,
4855,
5310,
6031,
6363,
6511,
6597,
6600,
6094,
6305,
92218,
70471,
12759,
3292,
3223,
3385,
3149,
2906,
2862,
2818,
2654,
2670,
2494,
2418,
2349,
2286,
2277,
2846,
2091,
2038,
1958,
1910,
1817,
1783,
1645,
1673,
1561,
1558,
1590,
12933,
37152,
1756,
1320,
1393,
5400,
3289,
1009,
960,
963,
859,
917,
850,
829,
752,
776,
766,
813,
708,
679,
623,
598,
587,
544,
550,
505,
502,
446,
474,
427,
426,
365,
334,
330,
320,
297,
279,
278,
223,
239,
232,
214,
164,
167,
151,
150,
151,
141,
116,
126,
93,
86,
72,
71,
52,
50,
39,
27,
17,
21,
15,
5,
3,
2,
0,
2,
0,
0,
1,
4,
0,
0,
1,
1,
0,
0,
2,
0,
0,
2,
1,
0,
0,
0,
0,
0,
0,
0,
0,
0,
0,
1,
0,
0,
0,
0,
0,
1,
0,
0,
0,
0,
0,
0,
1,
0,
0,
0,
0,
0,
0,
0,
0,
0,
0,
0,
0,
0,
0,
0,
0,
0,
0,
0,
0,
0,
0,
0,
0,
0,
0,
0,
0,
0,
0,
0,
0,
0,
0,
0,
0,
0,
0,
0,
0,
0,
0,
0,
0,
0,
0,
0,
0,
0,
0,
0,
0,
0,
0,
0,
0,
0,
0,
0,
0,
0,
0,
0,
0,
0,
0,
0,
0,
0,
0,
0,
0,
0,
0,
0,
0,
0,
0,
0,
0,
0,
0,
0,
0,
0,
0,
0,
0,
0,
0,
0,
0,
0,
0,
0,
0,
0,
0,
0,
0,
0,
0,
0,
0,
0,
0,
0,
0,
0,
0,
0,
0,
0,
0,
0,
0,
0,
0,
0,
0,
0,
0,
0,
0,
0,
0,
0,
0,
0,
0,
0,
0,
0,
0,
0,
0,
0,
0,
0,
0,
0,
0,
0,
0,
#ENDOFDATA   :

File: MMM2 Pyrite[7][4].msa
#FORMAT      : EMSA/MAS Spectral Data File
#VERSION     : 1.0
#TITLE       : MMM2 Pyrite[7][all]
#DATE        : 28-SEP-2025
#TIME        : 20:54
#OWNER       : Unknown
#NPOINTS     : 4096
#NCOLUMNS    : 1
#XUNITS      : eV
#YUNITS      : counts
#DATATYPE    : Y
#XPERCHAN    : 9.99778
#OFFSET      : 1.69135
#BEAMKV      : 15
#SIGNALTYPE  : EDS
#ELEVANGLE   : 35
#AZIMANGLE   : 0
#LIVETIME    : 240.197
#REALTIME    : 259.05
#PROBECUR    : 1.21333
#TAUWIND     : 0
#TDEADLYR    : 0
#TACTLYR     : 0.045
#TALWIND     : 0.025
#CHOFFSET    : 0.0
#XLABEL      : Energy (eV)
#YLABEL      : Counts
#XPOSITION   : -11.59591
#YPOSITION   : -4.4273
#ZPOSITION   : 34.11879
#EDSDET      : SD
##SPECIMEN   : MMM2 Pyrite[7][all]
##D2STDCMP   : Pyrite,(S:53.4528),(Fe:46.5472)
##DET_HASH   : 12273538-fd48-a23f-0a19-f1e6fa85caef
##CALIB_HASH : 6abaa72c-aa41-8738-0be9-f592914732f3
##WORKING    : 15.0 mm
##DET_NAME   : EDAX All
##DET_MODE   : MediumLE
#SPECTRUM    :
22,
1086,
14425,
3586,
18716,
85943,
4799,
4983,
5556,
6052,
6533,
6439,
6679,
6544,
6007,
6511,
91972,
70927,
12691,
3309,
3271,
3328,
3195,
2992,
2900,
2798,
2736,
2631,
2457,
2599,
2364,
2351,
2362,
2880,
2222,
2042,
1955,
1842,
1842,
1717,
1651,
1571,
1519,
1584,
1572,
13271,
37521,
1698,
1256,
1410,
5546,
3275,
1039,
992,
957,
852,
887,
858,
817,
819,
761,
748,
790,
732,
681,
652,
627,
576,
549,
526,
494,
459,
468,
429,
429,
413,
368,
375,
343,
296,
299,
285,
259,
270,
264,
232,
207,
184,
168,
158,
178,
137,
149,
131,
90,
96,
83,
88,
92,
61,
55,
37,
32,
35,
21,
14,
5,
3,
0,
2,
2,
0,
2,
0,
0,
0,
1,
2,
1,
1,
1,
1,
2,
0,
0,
0,
0,
0,
1,
0,
1,
1,
0,
0,
1,
0,
0,
0,
0,
0,
0,
0,
0,
0,
0,
0,
0,
0,
0,
0,
0,
0,
0,
0,
0,
1,
1,
0,
0,
0,
0,
0,
0,
0,
0,
0,
0,
0,
0,
0,
0,
0,
0,
0,
0,
0,
0,
0,
0,
0,
0,
0,
0,
0,
0,
0,
0,
0,
0,
0,
0,
0,
0,
0,
0,
0,
0,
0,
0,
0,
0,
0,
0,
0,
0,
0,
0,
0,
0,
0,
0,
0,
0,
0,
0,
0,
0,
0,
0,
0,
0,
0,
0,
0,
0,
0,
0,
0,
0,
0,
0,
0,
0,
0,
0,
0,
0,
0,
0,
0,
0,
0,
0,
0,
0,
0,
0,
0,
0,
0,
0,
0,
0,
0,
0,
0,
0,
0,
0,
0,
0,
0,
0,
0,
0,
0,
0,
0,
0,
0,
0,
0,
0,
0,
0,
0,
0,
0,
0,
0,
0,
0,
0,
0,
0,
0,
0,
0,
0,
0,
0,
0,
0,
0,
#ENDOFDATA   :

File: MMM2 Pyrope[0][4].msa
#FORMAT      : EMSA/MAS Spectral Data File
#VERSION     : 1.0
#TITLE       : MMM2 Pyrope[0][all]
#DATE        : 28-SEP-2025
#TIME        : 21:48
#OWNER       : Unknown
#NPOINTS     : 4096
#NCOLUMNS    : 1
#XUNITS      : eV
#YUNITS      : counts
#DATATYPE    : Y
#XPERCHAN    : 9.99778
#OFFSET      : 1.69135
#BEAMKV      : 15
#SIGNALTYPE  : EDS
#ELEVANGLE   : 35
#AZIMANGLE   : 0
#LIVETIME    : 240.3
#REALTIME    : 256.754
#PROBECUR    : 1.21223
#TAUWIND     : 0
#TDEADLYR    : 0
#TACTLYR     : 0.045
#TALWIND     : 0.025
#CHOFFSET    : 0.0
#XLABEL      : Energy (eV)
#YLABEL      : Counts
#XPOSITION   : -13.91934
#YPOSITION   : -1.87693
#ZPOSITION   : 34.11879
#EDSDET      : SD
##SPECIMEN   : MMM2 Pyrope[0][all]
##D2STDCMP   : Pyrope,(O:47.6258),(Mg:18.0873),(Al:13.3861),(Si:20.9007),5.0
##DET_HASH   : 12273538-fd48-a23f-0a19-f1e6fa85caef
##CALIB_HASH : 6abaa72c-aa41-8738-0be9-f592914732f3
##WORKING    : 15.0 mm
##DET_NAME   : EDAX All
##DET_MODE   : MediumLE
#SPECTRUM    :
29,
231,
12826,
9572,
82421,
10875,
3619,
4478,
5425,
104640,
9702,
32613,
42181,
20553,
3004,
2573,
2974,
2550,
2511,
2315,
2300,
2239,
2082,
2022,
1956,
1980,
6973,
3144,
1724,
2224,
1396,
1392,
1856,
1275,
1186,
1233,
1137,
1131,
1308,
1794,
901,
918,
1210,
926,
820,
2281,
5664,
784,
694,
707,
1220,
866,
599,
547,
529,
523,
467,
468,
425,
454,
399,
439,
367,
362,
343,
321,
328,
323,
273,
286,
263,
261,
211,
228,
217,
218,
178,
152,
176,
140,
147,
153,
128,
116,
118,
116,
110,
95,
82,
71,
64,
54,
59,
56,
58,
51,
42,
35,
26,
30,
21,
12,
15,
12,
8,
7,
4,
0,
1,
0,
0,
0,
2,
0,
0,
0,
0,
1,
0,
0,
0,
0,
0,
0,
0,
1,
0,
0,
0,
0,
0,
0,
0,
0,
0,
0,
0,
0,
0,
0,
0,
0,
1,
0,
0,
0,
0,
0,
0,
0,
0,
0,
0,
0,
0,
0,
0,
0,
0,
0,
0,
0,
0,
0,
0,
0,
0,
0,
0,
0,
0,
0,
0,
0,
0,
0,
0,
0,
0,
0,
0,
0,
0,
0,
0,
0,
0,
0,
0,
0,
0,
0,
0,
0,
0,
0,
0,
0,
0,
0,
0,
0,
0,
0,
0,
0,
0,
0,
0,
0,
0,
0,
0,
0,
0,
0,
0,
0,
0,
0,
0,
0,
0,
0,
0,
0,
0,
0,
0,
0,
0,
0,
0,
0,
0,
0,
0,
0,
0,
0,
0,
0,
0,
0,
0,
0,
0,
0,
0,
0,
0,
0,
0,
0,
0,
0,
0,
0,
0,
0,
0,
0,
0,
0,
0,
0,
0,
0,
0,
0,
0,
0,
0,
0,
0,
0,
0,
0,
0,
0,
0,
0,
0,
0,
0,
0,
0,
0,
0,
0,
0,
0,
0,
0,
#ENDOFDATA   :

File: MMM2 Pyrope[1][4].msa
#FORMAT      : EMSA/MAS Spectral Data File
#VERSION     : 1.0
#TITLE       : MMM2 Pyrope[1][all]
#DATE        : 28-SEP-2025
#TIME        : 21:49
#OWNER       : Unknown
#NPOINTS     : 4096
#NCOLUMNS    : 1
#XUNITS      : eV
#YUNITS      : counts
#DATATYPE    : Y
#XPERCHAN    : 9.99778
#OFFSET      : 1.69135
#BEAMKV      : 15
#SIGNALTYPE  : EDS
#ELEVANGLE   : 35
#AZIMANGLE   : 0
#LIVETIME    : 240.321
#REALTIME    : 256.74
#PROBECUR    : 1.21223
#TAUWIND     : 0
#TDEADLYR    : 0
#TACTLYR     : 0.045
#TALWIND     : 0.025
#CHOFFSET    : 0.0
#XLABEL      : Energy (eV)
#YLABEL      : Counts
#XPOSITION   : -13.93841
#YPOSITION   : -1.89656
#ZPOSITION   : 34.11879
#EDSDET      : SD
##SPECIMEN   : MMM2 Pyrope[1][all]
##D2STDCMP   : Pyrope,(O:47.6258),(Mg:18.0873),(Al:13.3861),(Si:20.9007),5.0
##DET_HASH   : 12273538-fd48-a23f-0a19-f1e6fa85caef
##CALIB_HASH : 6abaa72c-aa41-8738-0be9-f592914732f3
##WORKING    : 15.0 mm
##DET_NAME   : EDAX All
##DET_MODE   : MediumLE
#SPECTRUM    :
21,
222,
12969,
9712,
82552,
10774,
3507,
4422,
5452,
104026,
9488,
32298,
41770,
20417,
2907,
2597,
3017,
2465,
2448,
2385,
2234,
2333,
2126,
2085,
1882,
1957,
6993,
3286,
1879,
2284,
1464,
1402,
1926,
1319,
1222,
1272,
1107,
1077,
1287,
1751,
956,
918,
1236,
875,
832,
2315,
5627,
763,
631,
697,
1202,
940,
575,
546,
508,
494,
492,
486,
481,
412,
404,
415,
383,
354,
355,
327,
322,
322,
292,
287,
257,
247,
232,
220,
206,
195,
209,
164,
169,
177,
136,
148,
133,
122,
129,
117,
92,
80,
104,
86,
80,
78,
53,
49,
64,
60,
40,
35,
23,
36,
22,
16,
22,
11,
13,
3,
1,
0,
0,
0,
0,
0,
0,
0,
0,
0,
0,
0,
0,
0,
0,
0,
0,
0,
0,
0,
0,
0,
0,
0,
1,
0,
0,
0,
0,
0,
0,
0,
0,
0,
0,
0,
0,
0,
0,
0,
0,
0,
0,
0,
0,
0,
0,
0,
0,
0,
0,
0,
0,
0,
0,
0,
0,
0,
0,
0,
0,
0,
0,
0,
0,
0,
0,
0,
0,
0,
0,
0,
0,
0,
0,
0,
0,
0,
0,
0,
0,
0,
0,
0,
0,
0,
0,
0,
0,
0,
0,
0,
0,
0,
0,
0,
0,
0,
0,
0,
0,
0,
0,
0,
0,
0,
0,
0,
0,
0,
0,
0,
0,
0,
0,
0,
0,
0,
0,
0,
0,
0,
0,
0,
0,
0,
0,
0,
0,
0,
0,
0,
0,
0,
0,
0,
0,
0,
0,
0,
0,
0,
0,
0,
0,
0,
0,
0,
0,
0,
0,
0,
0,
0,
0,
0,
0,
0,
0,
0,
0,
0,
0,
0,
0,
0,
0,
0,
0,
0,
0,
0,
0,
0,
0,
0,
0,
0,
0,
0,
0,
0,
0,
0,
0,
0,
0,
0,
#ENDOFDATA   :

File: MMM2 Pyrope[2][4].msa
#FORMAT      : EMSA/MAS Spectral Data File
#VERSION     : 1.0
#TITLE       : MMM2 Pyrope[2][all]
#DATE        : 28-SEP-2025
#TIME        : 21:50
#OWNER       : Unknown
#NPOINTS     : 4096
#NCOLUMNS    : 1
#XUNITS      : eV
#YUNITS      : counts
#DATATYPE    : Y
#XPERCHAN    : 9.99778
#OFFSET      : 1.69135
#BEAMKV      : 15
#SIGNALTYPE  : EDS
#ELEVANGLE   : 35
#AZIMANGLE   : 0
#LIVETIME    : 240.1867
#REALTIME    : 256.611
#PROBECUR    : 1.21223
#TAUWIND     : 0
#TDEADLYR    : 0
#TACTLYR     : 0.045
#TALWIND     : 0.025
#CHOFFSET    : 0.0
#XLABEL      : Energy (eV)
#YLABEL      : Counts
#XPOSITION   : -13.93161
#YPOSITION   : -1.8511
#ZPOSITION   : 34.11879
#EDSDET      : SD
##SPECIMEN   : MMM2 Pyrope[2][all]
##D2STDCMP   : Pyrope,(O:47.6258),(Mg:18.0873),(Al:13.3861),(Si:20.9007),5.0
##DET_HASH   : 12273538-fd48-a23f-0a19-f1e6fa85caef
##CALIB_HASH : 6abaa72c-aa41-8738-0be9-f592914732f3
##WORKING    : 15.0 mm
##DET_NAME   : EDAX All
##DET_MODE   : MediumLE
#SPECTRUM    :
24,
249,
12798,
9616,
82502,
10855,
3633,
4415,
5399,
105489,
9638,
32447,
42182,
20339,
2908,
2598,
2945,
2458,
2436,
2368,
2279,
2311,
2115,
2090,
1942,
2023,
6961,
3365,
1794,
2250,
1484,
1384,
1914,
1273,
1193,
1257,
1112,
1079,
1342,
1813,
902,
870,
1269,
902,
813,
2377,
5662,
713,
623,
651,
1192,
830,
544,
553,
527,
506,
480,
457,
466,
432,
397,
383,
369,
350,
338,
317,
325,
317,
269,
277,
245,
244,
235,
200,
246,
195,
197,
178,
196,
149,
143,
145,
138,
111,
131,
101,
98,
98,
90,
73,
74,
59,
59,
64,
61,
46,
62,
44,
29,
35,
21,
15,
15,
13,
13,
8,
6,
0,
0,
1,
0,
0,
0,
0,
0,
0,
0,
0,
0,
0,
0,
0,
0,
1,
0,
0,
0,
0,
0,
1,
0,
0,
0,
0,
0,
1,
0,
1,
0,
0,
0,
0,
0,
0,
0,
0,
0,
0,
0,
1,
0,
0,
0,
0,
0,
0,
0,
0,
0,
0,
0,
0,
0,
0,
0,
0,
0,
0,
0,
0,
0,
0,
0,
0,
0,
0,
0,
0,
0,
0,
0,
0,
0,
0,
0,
0,
0,
0,
0,
0,
0,
0,
0,
0,
0,
0,
0,
0,
0,
0,
0,
0,
0,
0,
0,
0,
0,
0,
0,
0,
0,
0,
0,
0,
0,
0,
0,
0,
0,
0,
0,
0,
0,
0,
0,
0,
0,
0,
0,
0,
0,
0,
0,
0,
0,
0,
0,
0,
0,
0,
0,
0,
0,
0,
0,
0,
0,
0,
0,
0,
0,
0,
0,
0,
0,
0,
0,
0,
0,
0,
0,
0,
0,
0,
0,
0,
0,
0,
0,
0,
0,
0,
0,
0,
0,
0,
0,
0,
0,
0,
0,
0,
0,
0,
0,
0,
0,
0,
0,
0,
0,
0,
0,
0,
#ENDOFDATA   :

File: MMM2 Pyrope[3][4].msa
#FORMAT      : EMSA/MAS Spectral Data File
#VERSION     : 1.0
#TITLE       : MMM2 Pyrope[3][all]
#DATE        : 28-SEP-2025
#TIME        : 21:52
#OWNER       : Unknown
#NPOINTS     : 4096
#NCOLUMNS    : 1
#XUNITS      : eV
#YUNITS      : counts
#DATATYPE    : Y
#XPERCHAN    : 9.99778
#OFFSET      : 1.69135
#BEAMKV      : 15
#SIGNALTYPE  : EDS
#ELEVANGLE   : 35
#AZIMANGLE   : 0
#LIVETIME    : 240.187
#REALTIME    : 256.626
#PROBECUR    : 1.21223
#TAUWIND     : 0
#TDEADLYR    : 0
#TACTLYR     : 0.045
#TALWIND     : 0.025
#CHOFFSET    : 0.0
#XLABEL      : Energy (eV)
#YLABEL      : Counts
#XPOSITION   : -13.92666
#YPOSITION   : -1.86168
#ZPOSITION   : 34.11879
#EDSDET      : SD
##SPECIMEN   : MMM2 Pyrope[3][all]
##D2STDCMP   : Pyrope,(O:47.6258),(Mg:18.0873),(Al:13.3861),(Si:20.9007),5.0
##DET_HASH   : 12273538-fd48-a23f-0a19-f1e6fa85caef
##CALIB_HASH : 6abaa72c-aa41-8738-0be9-f592914732f3
##WORKING    : 15.0 mm
##DET_NAME   : EDAX All
##DET_MODE   : MediumLE
#SPECTRUM    :
23,
245,
12976,
9514,
82555,
10852,
3613,
4417,
5419,
105078,
9642,
32534,
42144,
20442,
2960,
2617,
3007,
2550,
2565,
2269,
2191,
2239,
2153,
2139,
1860,
2012,
6891,
3176,
1758,
2318,
1482,
1393,
1844,
1339,
1181,
1254,
1157,
1015,
1277,
1732,
962,
934,
1258,
902,
863,
2294,
5646,
781,
652,
662,
1200,
898,
580,
564,
548,
481,
484,
477,
428,
393,
414,
364,
346,
340,
319,
348,
287,
298,
296,
288,
250,
247,
236,
227,
220,
196,
203,
162,
164,
147,
122,
147,
136,
125,
127,
111,
101,
94,
81,
85,
67,
73,
58,
37,
47,
50,
36,
48,
37,
29,
27,
15,
15,
12,
11,
7,
4,
1,
0,
0,
1,
0,
1,
0,
0,
0,
0,
0,
0,
1,
0,
0,
0,
0,
0,
0,
0,
1,
0,
0,
0,
0,
0,
0,
0,
0,
0,
0,
0,
0,
0,
0,
0,
0,
0,
0,
0,
0,
0,
0,
0,
0,
0,
0,
0,
0,
0,
0,
0,
0,
0,
0,
0,
0,
0,
0,
0,
0,
0,
0,
0,
0,
0,
0,
0,
0,
0,
0,
0,
0,
0,
0,
0,
0,
0,
0,
0,
0,
0,
0,
0,
0,
0,
0,
0,
0,
0,
0,
0,
0,
0,
0,
0,
0,
0,
0,
0,
0,
0,
0,
0,
0,
0,
0,
0,
0,
0,
0,
0,
0,
0,
0,
0,
0,
0,
0,
0,
0,
0,
0,
0,
0,
0,
0,
0,
0,
0,
0,
0,
0,
0,
0,
0,
0,
0,
0,
0,
0,
0,
0,
0,
0,
0,
0,
0,
0,
0,
0,
0,
0,
0,
0,
0,
0,
0,
0,
0,
0,
0,
0,
0,
0,
0,
0,
0,
0,
0,
0,
0,
0,
0,
0,
0,
0,
0,
0,
0,
0,
0,
0,
0,
0,
0,
0,
#ENDOFDATA   :

File: MMM2 Pyrope[4][4].msa
#FORMAT      : EMSA/MAS Spectral Data File
#VERSION     : 1.0
#TITLE       : MMM2 Pyrope[4][all]
#DATE        : 28-SEP-2025
#TIME        : 21:53
#OWNER       : Unknown
#NPOINTS     : 4096
#NCOLUMNS    : 1
#XUNITS      : eV
#YUNITS      : counts
#DATATYPE    : Y
#XPERCHAN    : 9.99778
#OFFSET      : 1.69135
#BEAMKV      : 15
#SIGNALTYPE  : EDS
#ELEVANGLE   : 35
#AZIMANGLE   : 0
#LIVETIME    : 240.414
#REALTIME    : 256.738
#PROBECUR    : 1.21223
#TAUWIND     : 0
#TDEADLYR    : 0
#TACTLYR     : 0.045
#TALWIND     : 0.025
#CHOFFSET    : 0.0
#XLABEL      : Energy (eV)
#YLABEL      : Counts
#XPOSITION   : -13.92934
#YPOSITION   : -1.87544
#ZPOSITION   : 34.11879
#EDSDET      : SD
##SPECIMEN   : MMM2 Pyrope[4][all]
##D2STDCMP   : Pyrope,(O:47.6258),(Mg:18.0873),(Al:13.3861),(Si:20.9007),5.0
##DET_HASH   : 12273538-fd48-a23f-0a19-f1e6fa85caef
##CALIB_HASH : 6abaa72c-aa41-8738-0be9-f592914732f3
##WORKING    : 15.0 mm
##DET_NAME   : EDAX All
##DET_MODE   : MediumLE
#SPECTRUM    :
22,
267,
14788,
9364,
80237,
10723,
3591,
4417,
5373,
103766,
9563,
32386,
41942,
20268,
2951,
2582,
3011,
2566,
2424,
2305,
2279,
2303,
2068,
2050,
1825,
1961,
7045,
3343,
1845,
2275,
1517,
1337,
1892,
1314,
1215,
1266,
1137,
1071,
1332,
1699,
910,
896,
1245,
893,
823,
2359,
5696,
744,
659,
653,
1153,
919,
559,
550,
540,
520,
479,
452,
433,
385,
376,
350,
389,
334,
344,
317,
311,
307,
294,
277,
270,
239,
255,
209,
207,
222,
205,
197,
198,
149,
128,
151,
139,
134,
109,
124,
99,
81,
88,
92,
81,
49,
46,
57,
39,
49,
46,
37,
24,
31,
18,
16,
19,
20,
4,
6,
5,
1,
1,
0,
0,
0,
1,
0,
0,
0,
0,
0,
1,
1,
0,
0,
0,
0,
1,
0,
0,
1,
0,
1,
0,
0,
0,
0,
0,
0,
0,
0,
0,
0,
0,
0,
0,
0,
0,
0,
0,
0,
0,
0,
0,
0,
0,
0,
1,
0,
0,
0,
0,
0,
0,
0,
0,
0,
0,
0,
0,
0,
0,
0,
0,
0,
0,
0,
0,
0,
0,
0,
0,
0,
0,
0,
0,
0,
0,
0,
0,
0,
0,
0,
0,
0,
0,
0,
0,
0,
0,
0,
0,
0,
0,
0,
0,
0,
0,
0,
0,
0,
0,
0,
0,
0,
0,
0,
0,
0,
0,
0,
0,
0,
0,
0,
0,
0,
0,
0,
0,
1,
0,
0,
0,
0,
0,
0,
0,
0,
0,
0,
0,
0,
0,
0,
0,
0,
0,
0,
0,
0,
0,
0,
0,
0,
0,
0,
0,
0,
0,
0,
0,
0,
0,
0,
0,
0,
0,
0,
0,
0,
0,
0,
0,
0,
0,
0,
0,
0,
0,
0,
0,
0,
0,
0,
0,
0,
0,
0,
0,
0,
0,
0,
0,
0,
0,
0,
#ENDOFDATA   :

File: MMM2 Pyrope[5][4].msa
#FORMAT      : EMSA/MAS Spectral Data File
#VERSION     : 1.0
#TITLE       : MMM2 Pyrope[5][all]
#DATE        : 28-SEP-2025
#TIME        : 21:54
#OWNER       : Unknown
#NPOINTS     : 4096
#NCOLUMNS    : 1
#XUNITS      : eV
#YUNITS      : counts
#DATATYPE    : Y
#XPERCHAN    : 9.99778
#OFFSET      : 1.69135
#BEAMKV      : 15
#SIGNALTYPE  : EDS
#ELEVANGLE   : 35
#AZIMANGLE   : 0
#LIVETIME    : 240.436
#REALTIME    : 256.93
#PROBECUR    : 1.21223
#TAUWIND     : 0
#TDEADLYR    : 0
#TACTLYR     : 0.045
#TALWIND     : 0.025
#CHOFFSET    : 0.0
#XLABEL      : Energy (eV)
#YLABEL      : Counts
#XPOSITION   : -13.89438
#YPOSITION   : -1.89011
#ZPOSITION   : 34.11879
#EDSDET      : SD
##SPECIMEN   : MMM2 Pyrope[5][all]
##D2STDCMP   : Pyrope,(O:47.6258),(Mg:18.0873),(Al:13.3861),(Si:20.9007),5.0
##DET_HASH   : 12273538-fd48-a23f-0a19-f1e6fa85caef
##CALIB_HASH : 6abaa72c-aa41-8738-0be9-f592914732f3
##WORKING    : 15.0 mm
##DET_NAME   : EDAX All
##DET_MODE   : MediumLE
#SPECTRUM    :
29,
238,
12895,
9516,
82795,
10827,
3559,
4466,
5513,
104889,
9686,
32640,
42197,
20340,
2930,
2655,
3010,
2485,
2372,
2330,
2313,
2257,
2105,
2068,
1899,
2036,
6918,
3293,
1757,
2235,
1414,
1383,
1792,
1330,
1234,
1274,
1111,
1052,
1295,
1817,
896,
907,
1211,
863,
815,
2339,
5659,
810,
628,
697,
1174,
899,
569,
516,
536,
492,
454,
475,
459,
412,
424,
421,
342,
326,
384,
327,
341,
317,
250,
258,
278,
239,
227,
236,
185,
205,
153,
175,
191,
154,
160,
139,
139,
126,
118,
107,
100,
92,
86,
78,
65,
63,
63,
48,
52,
46,
44,
43,
23,
31,
14,
25,
17,
13,
10,
4,
4,
1,
0,
0,
0,
0,
0,
0,
1,
0,
0,
1,
0,
0,
0,
0,
0,
0,
0,
0,
0,
0,
0,
0,
0,
0,
0,
0,
0,
0,
0,
0,
0,
0,
1,
0,
0,
0,
0,
0,
0,
0,
0,
0,
0,
0,
0,
0,
0,
0,
0,
0,
0,
0,
0,
0,
0,
0,
0,
0,
0,
0,
0,
0,
0,
0,
0,
0,
0,
0,
0,
0,
0,
0,
0,
0,
0,
0,
0,
0,
0,
0,
0,
0,
0,
0,
0,
0,
0,
0,
0,
0,
0,
0,
0,
0,
0,
0,
0,
0,
0,
0,
0,
0,
0,
0,
0,
0,
0,
0,
0,
1,
0,
0,
0,
0,
0,
0,
0,
0,
0,
0,
0,
0,
0,
0,
0,
0,
0,
0,
0,
0,
0,
0,
0,
0,
0,
0,
0,
0,
0,
0,
0,
0,
0,
0,
0,
0,
0,
0,
0,
0,
0,
0,
0,
0,
0,
0,
0,
0,
0,
0,
0,
0,
0,
0,
0,
0,
0,
0,
0,
0,
0,
0,
0,
0,
0,
0,
0,
0,
0,
0,
0,
0,
0,
0,
0,
0,
#ENDOFDATA   :

File: MMM2 Pyrope[6][4].msa
#FORMAT      : EMSA/MAS Spectral Data File
#VERSION     : 1.0
#TITLE       : MMM2 Pyrope[6][all]
#DATE        : 28-SEP-2025
#TIME        : 21:55
#OWNER       : Unknown
#NPOINTS     : 4096
#NCOLUMNS    : 1
#XUNITS      : eV
#YUNITS      : counts
#DATATYPE    : Y
#XPERCHAN    : 9.99778
#OFFSET      : 1.69135
#BEAMKV      : 15
#SIGNALTYPE  : EDS
#ELEVANGLE   : 35
#AZIMANGLE   : 0
#LIVETIME    : 240.244
#REALTIME    : 256.747
#PROBECUR    : 1.21223
#TAUWIND     : 0
#TDEADLYR    : 0
#TACTLYR     : 0.045
#TALWIND     : 0.025
#CHOFFSET    : 0.0
#XLABEL      : Energy (eV)
#YLABEL      : Counts
#XPOSITION   : -13.89621
#YPOSITION   : -1.85128
#ZPOSITION   : 34.11879
#EDSDET      : SD
##SPECIMEN   : MMM2 Pyrope[6][all]
##D2STDCMP   : Pyrope,(O:47.6258),(Mg:18.0873),(Al:13.3861),(Si:20.9007),5.0
##DET_HASH   : 12273538-fd48-a23f-0a19-f1e6fa85caef
##CALIB_HASH : 6abaa72c-aa41-8738-0be9-f592914732f3
##WORKING    : 15.0 mm
##DET_NAME   : EDAX All
##DET_MODE   : MediumLE
#SPECTRUM    :
18,
228,
13028,
9635,
83174,
10746,
3667,
4380,
5393,
105408,
9607,
32771,
42167,
20098,
2911,
2499,
2991,
2484,
2453,
2263,
2313,
2238,
2089,
2146,
1917,
1987,
6880,
3253,
1714,
2280,
1447,
1415,
1940,
1283,
1185,
1241,
1144,
1066,
1242,
1746,
937,
893,
1193,
894,
827,
2410,
5623,
763,
714,
699,
1220,
834,
566,
557,
535,
488,
509,
434,
430,
424,
405,
383,
389,
339,
320,
326,
330,
312,
298,
291,
289,
229,
254,
213,
229,
188,
183,
153,
174,
144,
169,
125,
157,
132,
145,
97,
99,
117,
99,
75,
77,
63,
58,
57,
52,
44,
33,
41,
35,
24,
24,
25,
16,
9,
14,
4,
3,
1,
0,
0,
0,
0,
2,
0,
0,
0,
0,
0,
0,
2,
0,
0,
0,
0,
0,
1,
0,
0,
0,
0,
0,
0,
0,
0,
0,
0,
0,
0,
0,
0,
0,
0,
0,
0,
0,
0,
0,
0,
0,
0,
0,
0,
0,
0,
0,
0,
0,
0,
0,
0,
0,
0,
0,
0,
0,
0,
0,
0,
0,
0,
0,
0,
0,
0,
0,
0,
0,
0,
0,
0,
0,
0,
0,
0,
0,
0,
0,
0,
0,
0,
0,
0,
0,
0,
0,
0,
0,
0,
0,
0,
0,
0,
0,
0,
0,
0,
0,
0,
0,
0,
0,
0,
0,
0,
0,
0,
0,
0,
0,
0,
0,
0,
0,
0,
0,
0,
0,
0,
0,
0,
0,
0,
0,
0,
0,
0,
0,
0,
0,
0,
0,
0,
0,
0,
0,
0,
0,
0,
0,
0,
0,
0,
0,
0,
0,
0,
0,
0,
0,
0,
0,
0,
0,
0,
0,
0,
0,
0,
0,
0,
0,
0,
0,
0,
0,
0,
0,
0,
0,
0,
0,
0,
0,
0,
0,
0,
0,
0,
0,
0,
0,
0,
0,
0,
#ENDOFDATA   :

File: MMM2 Pyrope[7][4].msa
#FORMAT      : EMSA/MAS Spectral Data File
#VERSION     : 1.0
#TITLE       : MMM2 Pyrope[7][all]
#DATE        : 28-SEP-2025
#TIME        : 21:56
#OWNER       : Unknown
#NPOINTS     : 4096
#NCOLUMNS    : 1
#XUNITS      : eV
#YUNITS      : counts
#DATATYPE    : Y
#XPERCHAN    : 9.99778
#OFFSET      : 1.69135
#BEAMKV      : 15
#SIGNALTYPE  : EDS
#ELEVANGLE   : 35
#AZIMANGLE   : 0
#LIVETIME    : 240.284
#REALTIME    : 256.744
#PROBECUR    : 1.21223
#TAUWIND     : 0
#TDEADLYR    : 0
#TACTLYR     : 0.045
#TALWIND     : 0.025
#CHOFFSET    : 0.0
#XLABEL      : Energy (eV)
#YLABEL      : Counts
#XPOSITION   : -13.91385
#YPOSITION   : -1.86823
#ZPOSITION   : 34.11879
#EDSDET      : SD
##SPECIMEN   : MMM2 Pyrope[7][all]
##D2STDCMP   : Pyrope,(O:47.6258),(Mg:18.0873),(Al:13.3861),(Si:20.9007),5.0
##DET_HASH   : 12273538-fd48-a23f-0a19-f1e6fa85caef
##CALIB_HASH : 6abaa72c-aa41-8738-0be9-f592914732f3
##WORKING    : 15.0 mm
##DET_NAME   : EDAX All
##DET_MODE   : MediumLE
#SPECTRUM    :
21,
236,
12669,
9785,
82566,
10698,
3589,
4444,
5445,
105311,
9631,
32542,
42138,
20382,
2963,
2550,
2992,
2543,
2439,
2306,
2230,
2285,
2025,
2119,
1860,
1901,
6926,
3208,
1774,
2317,
1512,
1255,
1862,
1246,
1185,
1179,
1112,
1069,
1336,
1768,
951,
923,
1260,
890,
845,
2262,
5768,
710,
728,
667,
1212,
894,
586,
575,
523,
493,
475,
454,
465,
454,
386,
384,
377,
379,
364,
302,
306,
280,
291,
280,
256,
244,
228,
238,
200,
200,
200,
185,
165,
147,
141,
126,
145,
137,
101,
114,
108,
90,
90,
67,
75,
76,
61,
49,
49,
53,
33,
25,
33,
30,
26,
20,
22,
17,
8,
3,
1,
0,
1,
0,
0,
0,
0,
0,
0,
0,
1,
0,
0,
0,
0,
0,
0,
0,
0,
1,
0,
0,
0,
0,
0,
0,
0,
0,
0,
0,
0,
0,
0,
0,
0,
0,
0,
0,
1,
0,
0,
0,
0,
0,
0,
0,
0,
0,
0,
0,
0,
0,
0,
0,
0,
0,
0,
0,
0,
0,
0,
0,
0,
0,
0,
0,
0,
0,
0,
0,
0,
0,
0,
0,
0,
0,
0,
0,
0,
0,
0,
0,
0,
0,
0,
0,
0,
0,
0,
0,
0,
0,
0,
0,
0,
0,
0,
0,
0,
0,
0,
0,
0,
0,
0,
0,
0,
0,
0,
0,
0,
0,
0,
0,
0,
0,
0,
0,
0,
0,
0,
0,
0,
0,
0,
0,
0,
0,
0,
0,
0,
0,
0,
0,
0,
0,
0,
0,
0,
0,
0,
0,
0,
0,
0,
0,
0,
0,
0,
0,
0,
0,
0,
0,
0,
0,
0,
0,
0,
0,
0,
0,
0,
0,
0,
0,
0,
0,
0,
0,
0,
0,
0,
0,
0,
0,
0,
0,
0,
0,
0,
0,
0,
0,
0,
0,
0,
0,
#ENDOFDATA   :